Accel x,Accel y,Accel z,Gyro x,Gyro y,Gyro z,AccelLPF x,AccelLPF y,AccelLPF z,GyroLPF x,GyroLPF y,GyroLPF z
0,0,0,0,0,0,0,0,0,0,0,0
0.09332217,5.039745,7.327333,-0.0033051274,0.008068263,-0.04944021,0.023330543,1.2599362,1.8318332,-8.26E-04,0.0020170656,-0.012360052
-0.69912446,6.8688364,7.832488,0.019093245,0.016538922,0.0017909799,-0.15728322,2.6621614,3.331997,0.0041536,0.00564753,-0.008822294
0.0358638,5.9351377,4.485538,0.027034484,0.022281045,0.0053339945,-0.108996466,3.4804053,3.6203823,0.0098738205,0.009805908,-0.0052832216
-0.25382215,5.7579746,7.303392,0.020314977,-0.015959082,-0.09484782,-0.14520289,4.0497975,4.541135,0.012484109,0.0033646608,-0.027674371
-0.08623521,5.736428,4.528631,0.0013781702,-0.058353096,-0.21592121,-0.13046098,4.471455,4.5380087,0.009707624,-0.012064778,-0.07473608
0.49792486,5.844162,1.2870219,0.039373957,-0.05273313,-0.12514672,0.026635483,4.814632,3.725262,0.017124208,-0.022231866,-0.08733874
-3.6055603,8.551888,9.072631,0.0161611,-0.17759389,-0.5146341,-0.88141346,5.748946,5.062104,0.016883431,-0.061072372,-0.19416258
-1.484389,6.009355,10.303198,0.033998348,-0.12017261,0.18908207,-1.0321573,5.8140483,6.3723774,0.02116216,-0.07584743,-0.09835142
-0.89304644,2.5833998,8.567476,-0.02794334,-0.153648,0.10514929,-0.9973796,5.0063863,6.921152,0.008885785,-0.095297575,-0.04747624
4.314118,6.586333,6.8963947,0.040840033,0.19405623,0.64002246,0.33049482,5.401373,6.914963,0.016874347,-0.022959128,0.12439843
0.5553832,7.541578,4.0378413,0.0074868174,0.19772139,-0.15373519,0.3867169,5.9364243,6.1956825,1.45E-02,0.032211002,0.054865025
1.2209427,5.8585267,9.707067,0.0694285,-0.007895668,-0.11867155,0.5952734,5.9169497,7.0735283,0.028252725,0.022184335,0.011480883
-0.61533105,6.062025,10.243345,-0.017680809,0.021548012,0.09232113,0.29262227,5.9532185,7.8659825,0.016769342,0.022025254,0.031690944
-0.19157557,6.296647,8.907438,-0.019146884,0.0238693,-0.03461656,0.1715728,6.039076,8.126347,0.007790286,0.022486266,0.015114069
-0.57941955,0.83570766,11.720504,0.007853334,-0.021334693,-0.017512344,-0.016175285,4.7382336,9.024886,0.007806048,0.011531026,0.006957466
1.6997623,5.286337,5.7352576,-0.021468174,0.019837588,0.024392974,0.41280913,4.8752594,8.202479,4.87E-04,0.013607667,0.011316342
-0.3663448,9.07859,7.9809217,5.90E-03,0.051969074,0.028791204,0.21802065,5.926092,8.14709,0.0018402615,0.02319802,0.015685057
0.56256557,9.408976,6.448699,-0.012549545,0.00700943,-0.059784185,0.30415687,6.796813,7.722492,-0.0017571901,0.019150872,-0.0031822529
1.5656928,6.255947,11.943155,-0.030142456,-0.021090347,-0.038403917,0.6195408,6.6615963,8.777658,-0.008853506,0.009090567,-0.011987669
-0.99359864,3.102919,9.213882,-4.11E-02,-0.055420943,0.04699497,0.21625596,5.771927,8.886715,-0.016924635,-0.00703731,0.0027579907
0.6032652,9.555016,4.791982,0.04157307,-0.01302693,0.1312943,0.31300828,6.717699,7.863032,-0.0023002084,-0.008534715,0.034892067
1.0150502,5.5185647,9.319222,-0.05750919,-0.005330035,-0.0795762,0.48851874,6.4179153,8.227079,-0.016102454,-0.007733545,0.006275
1.1419374,5.2001495,9.2785225,-0.06508391,-0.015714737,0.11015838,0.6518734,6.113474,8.489941,-0.028347818,-0.009728843,0.032245845
1.8553789,0.45265186,13.652542,0.04658216,0.05429036,0.09219896,0.9527498,4.6982684,9.780591,-0.009615324,0.0062759575,0.047234125
0.9097099,4.3526382,5.613158,-0.027576815,0.029977944,-0.069313675,0.9419898,4.6118608,8.738733,-0.014105697,1.22E-02,0.018097175
0.0741694,12.825355,6.4175754,-0.022079036,-0.03465154,-0.026186626,0.7250347,6.665234,8.158443,-0.016099032,4.88E-04,0.0070262253
0.42610192,8.827209,5.175038,-0.05457703,-0.106977925,0.050415814,0.6503015,7.205728,7.412592,-0.025718533,-0.026378326,0.017873622
0.5889006,2.5522766,7.791788,-0.002653536,-0.068859965,0.16794619,0.6349513,6.042365,7.507391,-0.019952282,-0.036998734,0.055391766
0.70381737,7.881541,6.939489,0.03803005,0.01666109,0.2370961,0.6521678,6.502159,7.3654156,-0.005456699,-0.023583777,0.10081785
-0.04553555,1.597031,8.883497,0.0032107662,0.09631786,0.15743932,0.47774196,5.275877,7.744936,-0.0032898327,0.0063916314,0.11497322
-1.1707621,2.8850565,6.2212596,0.004310323,0.08617749,0.04149719,0.06561595,4.678172,7.364017,-0.0013897938,0.026338097,0.09660421
-0.4597146,5.2145143,11.701351,-2.10E-04,0.08361187,8.85E-02,-0.065716684,4.812258,8.448351,-0.0010948649,0.04065654,0.0945866
0.0813517,6.1745477,6.2164707,0.026790146,0.08397838,0.06971914,-0.028949589,5.15283,7.890381,0.0058763875,0.051487,0.08836974
-0.05032374,5.6646047,9.889019,0.032043573,0.081901446,-0.03901478,-0.034293126,5.2807736,8.39004,0.0124181835,0.05909061,0.056523614
0.35906714,4.5417724,10.509089,-0.014870833,0.03779701,-0.010915007,0.064046934,5.0960236,8.919803,0.0055959295,0.05376721,0.03966396
0.0071346313,3.7038379,11.2775955,-1.88E-02,0.06553027,0.14888722,0.04981886,4.7479773,9.509251,-4.98E-04,0.05670798,0.066969775
0.56256557,3.0382786,9.412593,0.012007217,0.10218216,0.03624375,0.17800553,4.320553,9.485086,0.0026281956,0.06807652,0.05928827
0.2848501,2.0638804,15.584579,0.03338748,0.09753959,-0.05269815,0.20471667,3.7563848,11.00996,0.010318017,0.075442284,0.031291664
1.010262,5.427589,14.495265,-0.020735133,0.024724508,-0.09338173,0.40610301,4.1741858,11.881287,0.002554729,0.06276284,1.23E-04
1.0270207,5.549688,10.049423,0.01848238,0.054046012,-0.19759527,0.56133246,4.518061,11.423321,0.0065366416,0.060583636,-0.049306333
0.34709665,6.0883603,4.6722775,-0.034907196,-0.056031805,-0.26112518,0.5077735,4.910636,9.735559,-0.0038243174,0.031429775,-0.102261044
-0.44535005,-0.2296663,10.422903,0.084455766,-0.024389017,-0.12954493,0.26949263,3.6255603,9.907395,0.018245703,0.017475076,-0.10908201
-0.24185164,11.288343,3.1089308,0.052202113,-0.015959084,-0.15825558,0.14165656,5.541256,8.207779,0.026734805,0.009116536,-0.121375404
-0.12454082,2.516365,16.963581,-0.0240338,-0.14387415,-0.14237311,0.07510722,4.785033,10.396729,0.014042653,-0.029131135,-0.12662484
-0.3400097,6.8137717,5.495847,0.003943802,-0.1901777,-0.07749926,-0.02867201,5.2922177,9.171509,0.01151794,-0.06939278,-0.11434344
-0.27058083,8.274173,0.6956794,-3.32E-04,-0.16244444,0.13239385,-0.089149214,6.0377064,7.0525513,0.008555393,-0.092655696,-0.052659117
-0.22509296,4.5441666,8.5818405,-0.023422936,-0.08486462,0.08437989,-0.12313515,5.6643214,7.4348736,5.61E-04,-0.09070793,-0.018399365
0.06459299,0.94823027,14.904655,-0.005952204,-0.022922939,0.07497257,-0.076203115,4.4852986,9.302319,-0.0010674429,-0.07376168,0.0049436186
1.1036319,7.395538,2.558288,-0.023300769,0.050991684,0.06690916,0.21875563,5.212858,7.616311,-0.0066257743,-0.04257334,0.020435004
0.23217991,6.172154,5.780745,-0.02159034,0.011163311,-0.06589283,0.2221117,5.452682,7.1574197,-0.010366916,-0.029139178,-0.0011469554
3.1793156,11.5493,3.9564419,-0.042237572,0.00700943,0.029157717,0.96141267,6.9768367,6.3571754,-0.018334579,-0.020102026,0.0064292126
0.46680158,5.6071463,12.249599,-8.79E-05,0.025824063,-0.0542864,0.8377599,6.634414,7.8302813,-0.01377291,-0.008620504,-0.008749692
-0.7745385,6.5635886,6.9179425,-0.024423592,-0.09548786,-0.12885262,-0.19363463,1.6408972,1.7294856,-0.006105898,-0.023871966,-0.032213155
0.3423085,8.869106,12.623079,-0.015347885,-0.015610015,0.09734184,-0.05964884,3.4479494,4.452884,-0.008416395,-0.021806479,1.76E-04
0.09930745,7.256681,7.874385,-0.014184329,-0.039171945,-0.040539034,-0.01990977,4.400132,5.3082595,-0.009858378,-0.026147846,-0.010003062
0.77444327,10.232546,3.9732003,0.0011745524,-0.08036168,-0.06386825,0.17867848,5.8582354,4.974495,-0.0071001453,-0.039701305,-0.023469359
1.0126561,4.383762,8.799704,-0.055781312,-0.04981844,0.16191898,0.38717288,5.489617,5.930797,-0.019270437,-0.04223059,0.022877727
1.4639438,5.7172747,10.603657,-5.24E-02,0.03529538,-0.18673934,0.65636563,5.546531,7.099012,-0.027554583,-0.022849098,-0.02952654
-0.23466934,9.267723,4.4268823,-0.012439012,0.0057993373,-0.008017762,0.4336069,6.476829,6.4309797,-0.02377569,-0.015686989,-0.024149345
0.44046652,4.886523,10.055409,-0.08300842,-0.017704412,-0.03227782,0.4353218,6.0792522,7.337087,-0.038583875,-0.016191345,-0.026181463
1.0186414,5.647846,7.9916954,-0.03629182,-0.012875669,0.034277346,0.5811517,5.9714007,7.500739,-0.03801086,-0.015362426,-0.011066761
0.014316946,10.474349,10.361853,0.07715449,-0.018926144,0.011878974,0.43944302,7.097138,8.216018,-0.0092195235,-0.016253356,-0.005330327
0.2716825,8.885865,3.1651924,1.41E-03,-0.010548563,-0.041935302,0.3975029,7.5443196,6.9533114,-6.56E-03,-0.014827157,-0.014481571
-2.4994867,5.0852327,12.362123,-0.03216121,-0.084608644,-8.62E-04,-0.3267445,6.929548,8.305514,-0.012962423,-0.03227253,-0.011076657
1.6997623,9.331167,8.565082,0.01699885,-0.00781422,0.15621758,0.17988223,7.5299525,8.370406,-0.005472105,-2.62E-02,0.030746901
-0.7087009,3.6990497,6.4427137,-0.02948504,0.05239958,0.0658096,-0.042263553,6.572227,7.888483,-0.011475339,-0.006518569,0.039512575
0.9731535,5.3126726,10.749697,0.019384138,0.08102297,0.00879556,0.21159069,6.2573385,8.603786,-0.0037604691,0.015366815,0.03183332
-0.25023103,-0.3733122,11.066915,0.009668478,0.04152038,-0.06817339,0.09613526,4.599676,9.219568,-4.03E-04,0.021905206,0.0068316422
0.032272696,3.6679265,13.030075,0.02717993,0.027499579,-0.03792105,0.08016962,4.366739,10.172195,0.0064925584,0.0233038,-0.0043565305
-0.0036388338,9.920116,6.0285344,0.011588336,0.0023668576,0.00803925,0.059217505,5.755083,9.13628,0.007766503,0.018069563,-0.0012575854
1.7237034,3.464428,15.583383,-0.02419088,-0.0066506676,0.0030359821,0.475339,5.1824193,10.748055,-2.23E-04,0.011889506,-1.84E-04
-0.93374616,9.875825,2.0806656,0.020373154,0.044429254,-0.02017688,0.12306771,6.3557706,8.581208,0.0049261563,0.020024443,-0.005182365
-3.475082,2.3020933,11.676214,-0.050079916,0.039251447,-0.17132227,-0.7764697,5.342351,9.3549595,-0.008825362,0.024831194,-0.04671734
0.29203236,6.2679176,5.664631,0.068427846,0.018889293,-0.09918205,-0.5093442,5.573743,8.432377,0.01048794,0.02334572,-0.059833515
-0.18678737,-0.25480437,12.653006,0.0017563216,-0.063664705,-0.086732045,-0.428705,4.1166058,9.487534,0.0083050355,0.001593113,-0.066558145
2.1546412,11.835394,2.6576433,0.0062359916,-0.101189256,-0.011915658,0.21713153,6.046303,7.780061,0.0077877743,-0.02410248,-0.052897524
-1.7202076,6.290662,4.103679,0.16820243,-0.034750443,-0.071954936,-0.26720324,6.1073923,6.8609653,0.047891438,-0.026764471,-0.057661876
-0.77214456,3.6463795,9.06904,-0.083241135,-0.061803028,-0.09842574,-0.39343858,5.492139,7.412984,0.015108295,-0.03552411,-0.06785284
0.7074085,4.580078,13.54361,-0.028030604,-0.07367125,-0.006563319,-0.118226826,5.264124,8.945641,0.00432357,-0.045060895,-0.05253046
0.6152357,4.5752897,10.649145,-0.008017508,-0.064304665,-0.009297673,0.0651388,5.091915,9.371517,0.0012383005,-0.04987184,-0.041722264
0.38779628,6.743146,-0.73120344,-0.022445554,-1.93E-04,-0.029659826,0.14580317,5.5047226,6.845837,-0.004682663,-0.037452117,-0.038706653
1.3382535,9.155201,8.817659,-0.06090095,0.0151659325,-0.10558159,0.44391572,6.417342,7.338793,-0.018737234,-0.024297604,-0.055425387
-1.9009622,3.298038,11.06093,0.15266898,-0.09025187,0.009610045,-0.14230376,5.637516,8.269327,0.024114318,-0.04078617,-0.03916653
-0.99718976,7.5954456,3.7397761,-0.0058649406,-0.031376146,-0.01604627,-0.35602528,6.1269984,7.1369395,0.016619503,-0.038433664,-0.033386465
-0.094614565,7.074729,7.1741104,0.052545357,-0.11521004,0.1156678,-0.2906726,6.363931,7.146232,0.025600966,-0.05762776,0.0038770996
0.49792486,6.1494102,10.734136,-0.019478494,-0.04452428,0.107697465,-0.093523234,6.310301,8.043208,0.0143311005,-0.05435189,0.029832192
-1.0582393,-1.4889623,15.421782,-0.03367384,0.0064974744,0.25069797,-0.33470225,4.360485,9.887852,0.0023298655,-0.039139546,0.08504864
0.9707594,11.379319,2.0267982,0.10374162,-0.1267874,0.0035014022,-0.008336842,6.1151934,7.9225883,0.027682805,-0.06105151,0.06466183
1.8086939,7.6936035,7.031662,0.066624336,0.0881788,0.40894106,0.44592083,6.509796,7.6998568,0.037418187,-0.023743935,0.15073164
1.1682725,6.102725,8.633314,0.060981117,0.31128988,0.06493694,0.6265087,6.4080286,7.933221,0.04330892,0.060014516,0.12928297
0.85464555,7.291395,3.6727412,-0.044087622,0.18952419,-0.026460059,0.6835429,6.62887,6.868101,0.021459784,0.09239194,0.09034721
-0.06708243,12.578762,2.7402399,0.027296286,0.15159239,-0.055897925,0.49588656,8.116343,5.836136,0.02291891,0.107192054,0.053785924
0.52665406,3.0047612,14.480902,-0.020467514,0.054959405,0.004199533,0.5035784,6.838447,7.9973273,0.012072304,0.09413389,0.041389324
-0.34000972,13.806934,-12.42877,-0.01837312,0.10627204,-0.0790526,0.2926814,8.580569,2.8908029,0.004460948,0.09716843,0.0112788435
1.0653262,5.8321915,8.143721,0.0032107616,-0.014737354,0.002279671,0.26633155,1.4580479,2.0359302,8.03E-04,-0.0036843384,5.70E-04
0.3877963,6.18173,8.349613,4.01E-04,-0.014126489,0.008632663,0.29669774,2.6389685,3.6143508,7.02E-04,-0.0062948763,0.0025856039
-0.24424575,6.2822824,8.035986,-0.0013096351,-1.99E-04,0.016940426,0.16146186,3.549797,4.7197595,1.99E-04,-0.0047708503,0.006174309
-1.1803384,6.696461,7.7965765,0.008342027,0.0020003403,0.0044787843,-0.1739882,4.336463,5.4889636,0.0022349455,-0.0030780528,0.005750428
0.07177529,6.0739956,5.4455714,0.010174622,-0.012293896,0.023537766,-0.11254732,4.7708464,5.4781156,0.0042198645,-0.0053820135,0.010197262
0.46680158,8.911003,6.381664,0.032410096,-0.0034974418,0.052981444,0.032289907,5.8058853,5.7040024,0.011267423,-0.0049108705,0.020893307
0.98632103,7.711559,3.257365,0.022025399,-0.028420722,-0.04475691,0.27079767,6.282304,5.092343,0.0139569165,-0.010788334,0.004480753
-2.097278,4.237722,2.1273503,-0.017314292,-0.037461523,8.14E-04,-0.3212213,5.771158,4.3510947,0.0061391145,-0.017456632,0.0035639638
-0.8164354,2.0375452,18.52214,0.023247126,-0.015592562,0.13202734,-0.44502482,4.837755,7.893856,0.0104161175,-0.016990615,0.035679806
0.12923366,10.014683,9.225853,-0.020368617,-0.025610747,0.07924863,-0.3014602,6.131987,8.226855,2.72E-03,-0.019145649,0.04657201
-1.3575016,4.9535575,11.739656,-0.028554205,0.0622316,0.12518564,-0.5654706,5.8373795,9.105056,-5.10E-03,0.0011986643,0.06622542
-1.7429516,7.515243,3.034714,-0.02476684,0.038285702,-0.18525581,-0.85984087,6.2568455,7.58747,-0.010015661,0.010470424,0.0033551082
-0.27058083,10.740094,6.355329,0.020925842,-0.07948901,-0.0027294196,-0.71252584,7.377658,7.2794347,-2.28E-03,-0.012019433,0.0018339762
0.27527368,2.8611155,10.047029,-0.031730697,-0.011927373,0.13007256,-0.46557596,6.2485223,7.971333,-0.009642888,-1.20E-02,0.033893622
0.45243698,6.634215,1.7203537,0.0558673,0.023747126,0.06727568,-0.23607272,6.3449454,6.4085884,0.006734658,-0.0030605327,0.042239137
0.2273917,3.6775026,9.733402,-0.010839121,-0.0032530956,-0.06796978,-0.12020661,5.678085,7.239792,0.0023412132,-0.0031086735,0.014686909
1.1419374,12.913937,7.5619545,0.00626509,-0.028298547,-0.0057837437,0.19532938,7.4870477,7.3203325,0.0033221822,-0.009406142,0.009569245
2.394051,7.6014304,5.6466756,-0.044925373,0.020692801,0.048705395,0.7450098,7.515643,6.9019184,-0.008739706,-0.0018814062,0.019353282
-1.8171686,9.332364,3.4584694,0.0063872626,0.03865223,0.013641755,0.10446519,7.9698234,6.041056,-0.0049579637,0.008252002,0.0179254
-0.19157557,11.36256,2.5415294,0.04084003,-0.0071626296,-0.08580702,0.030454993,8.818007,5.1661744,0.0064915344,0.004398344,-0.008007705
1.8410143,9.815972,8.905044,0.029477946,-0.023778152,0.07436171,0.4830948,9.067499,6.1008916,0.012238137,-0.0026457799,0.012584649
1.6423041,2.4014482,10.700618,-0.0020426689,0.04439435,-0.0040733214,0.7728971,7.4009867,7.250823,0.008667936,0.009114252,0.008420156
1.2017899,-3.4353647,13.475379,-0.007906978,0.012385042,-0.07053541,0.8801203,4.691899,8.806962,0.004524207,0.00993195,-0.011318734
0.20584482,-1.4362922,12.88643,-0.0064409007,-0.012416067,-0.05123208,0.7115514,3.159851,9.826829,0.0017829302,0.004344946,-0.021297071
2.293499,-1.3165871,27.976437,0.0140841575,-0.00997261,0.05114885,1.1070383,2.0407414,14.364231,0.0048582368,7.66E-04,-0.0031855907
-0.5004143,-6.3418007,20.95215,0.04487174,0.013362426,-0.011648044,0.7051751,-0.05489397,16.011211,0.014861613,0.0039147744,-0.005301204
1.2113663,10.290005,15.795259,-0.015115177,0.03486486,-0.001141171,0.8317229,2.5313306,15.957224,0.0073674154,0.011652296,-0.0042611957
-0.78052384,9.511923,-4.743713,-0.015359521,0.015195018,-0.088617004,0.42866123,4.276479,10.78199,0.0016856813,0.012537977,-0.025350148
-0.3376156,1.4797202,12.984588,-0.029775929,-0.02842072,0.041252837,0.23709202,3.577289,11.33264,-0.0061797216,0.002298303,-0.008699402
0.2273917,3.9264894,10.121246,-0.0061965548,0.016661096,-0.056363344,0.23466694,3.6645892,11.029791,-0.0061839297,0.0058890013,-0.020615388
1.2520659,4.7883644,11.646287,0.03021098,0.019471074,-0.06662587,0.48901668,3.945533,11.183915,0.0029147975,0.00928452,-0.032118008
0.8259164,5.228879,12.125107,-0.012060851,0.056245126,-0.20028308,0.5732416,4.2663693,11.419213,-8.29E-04,0.02102467,-0.07415928
-1.0869685,8.094615,0.44190502,0.052202113,-0.086086355,-0.13394317,0.15818906,5.2234306,8.674887,0.012428693,-0.005753085,-0.08910525
-0.6751835,11.446353,-1.593079,-0.028554205,-0.10832183,-0.09191567,-0.050154075,6.7791615,6.1078954,0.002182968,-0.03139527,-0.08980785
-0.6584248,8.116162,1.0260651,0.019704115,-0.10807748,-0.09411479,-0.20222175,7.113412,4.8374376,0.0065632546,-0.050565824,-0.09088459
-0.9121992,1.5204198,8.251455,0.0188489,-0.14314112,-0.045612127,-0.3797161,5.715164,5.690942,0.009634666,-0.07370965,-0.07956647
0.30879107,2.8467507,9.814802,0.005287705,-0.069837354,0.019750401,-0.2075893,4.9980607,6.7219067,0.008547926,-0.072741576,-0.054737255
-0.21551655,8.958885,1.5455846,-0.05469921,-0.054932248,0.008266144,-0.20957111,5.988267,5.427826,-0.007263858,-0.06828924,-0.038986407
0.25372678,10.902893,-1.2650874,0.00797551,-0.049678817,-0.023376644,-0.09374663,7.2169237,3.7545977,-0.0034540158,-0.06363664,-0.035083964
-0.3017041,-0.4259824,9.419775,-0.013160415,-0.007040455,-0.059906356,-0.14573601,5.306197,5.170892,-0.0058806157,-0.04948759,-0.04128956
-1.2066735,4.0007057,10.487543,0.017016303,-0.06898214,-0.017634518,-0.4109704,4.979824,6.5000544,-1.56E-04,-0.054361228,-0.0353758
0.23217991,4.1563225,6.0464897,-0.018780366,-0.06861562,0.058723576,-0.2501828,4.7739487,6.3866634,-0.0048123808,-0.057924826,-0.011850957
-0.8044649,10.912469,-0.6186808,-0.04590276,-0.036728486,0.0947646,-0.38875332,6.3085785,4.6353273,-0.0150849745,-0.05262574,0.014802933
0.97195643,10.06017,2.0866506,0.03864091,0.015805885,0.097452395,-0.04857588,7.246476,3.9981582,-0.0016535036,-0.035517834,0.0354653
-1.0414807,2.1548562,7.791788,0.018971074,-0.022189904,-0.06454893,-0.29680207,5.9735713,4.9465656,0.0035026409,-0.032185853,1.05E-02
0.4141314,6.998118,8.313702,0.0025998987,-0.25334108,0.42463154,-0.11906871,6.2297077,5.7883496,0.0032769553,-0.08747466,0.11400419
0.15796286,3.8091784,11.543341,0.07113892,-0.10722227,0.6626244,-0.04981082,5.6245756,7.2270975,0.020242445,-0.09241156,0.25115925
4.2303247,11.748011,3.695485,0.17498593,0.19026884,0.3080786,1.0202231,7.1554346,6.3441944,0.05892832,-0.021741465,0.26538908
0.63917667,-0.9694428,27.777725,0.17217593,0.34164116,0.06984131,0.9249615,5.124215,11.702578,0.08724022,0.069104195,0.21650214
-0.41901493,1.8531996,19.314587,-0.013160413,0.41445622,-0.10339992,0.5889674,4.3064613,13.605579,0.062140062,0.15544221,0.13652663
-3.6127427,3.3854227,11.282384,-0.02220121,0.32490346,-0.44499546,-0.46146017,4.0762014,13.02478,0.041054744,0.19780752,-0.008853897
-0.76615924,5.4108305,1.7371124,0.090564415,-0.06666085,-0.10828684,-0.53763497,4.4098587,10.202864,0.053432163,0.13169043,-0.033712134
1.0126561,12.897178,9.024749,-0.069115624,-0.009728251,-0.025453586,-0.1500622,6.5316887,9.908335,0.022795215,0.096335754,-0.031647496
-0.36395067,9.935678,-5.0693107,0.014328497,0.10218216,-0.03205092,-0.20353432,7.3826857,6.1639233,0.020678535,0.09779736,-0.03174835
-1.2401909,-3.9955835,16.12086,0.0423061,-0.09867017,-0.08983873,-0.46269846,4.5381184,8.653157,0.026085425,0.048680477,-0.046270944
3.6988351,13.883547,9.956053,0.1605695,-0.2918256,0.11895483,0.5776849,6.8744755,8.978881,0.059706446,-0.036446042,-0.0049645007
0.7098026,9.074999,6.6905026,0.03707012,-0.17007153,0.22317997,0.17745066,2.2687497,1.6726257,0.00926753,-0.04251788,0.05579499
1.6123779,6.589924,8.518397,-0.04170233,0.12960126,0.015427823,0.53618246,3.3490434,3.3840685,-0.003474935,5.12E-04,0.0457032
1.155105,7.4889083,7.3871856,-0.024598122,0.108191915,-0.39670226,0.6909131,4.3840094,4.3848476,-0.008755731,0.027431905,-0.06489816
-0.97085476,6.7874374,8.94335,-0.003014239,-0.1516874,-0.65902495,0.27547112,4.984866,5.524473,-0.0073203584,-0.01734792,-0.21342987
-1.364684,7.4817266,9.2701435,0.028634373,-0.2695552,-0.39356068,-0.13456765,5.6090813,6.460891,0.0016683247,-0.08039974,-0.25846258
0.35906714,8.390287,5.6849813,0.074827395,-0.29387343,0.011820796,-0.011158951,6.304383,6.2669134,0.019958092,-0.13376816,-0.19089174
-0.3591625,7.7821856,5.045757,-0.022503732,-0.15098928,0.12904865,-0.09815984,6.6738334,5.961624,9.34E-03,-0.13807344,-0.110906646
0.97195643,6.257144,7.540408,-0.017500456,-0.050225686,-0.0902227,0.16936922,6.569661,6.3563204,0.0026318626,-0.1161115,-0.10573566
1.1682725,3.1986833,10.230177,6.29E-02,-0.038997408,-0.110352136,0.41909504,5.726917,7.3247843,0.017699141,-0.096832976,-0.10688978
0.45483103,6.8915806,11.871332,0.058130406,-0.14011005,-0.10499981,0.42802903,6.0180826,8.461421,0.027806956,-0.10765225,-0.10641728
-0.80087376,2.1835852,8.858358,-0.01715139,-0.16064677,0.00978458,0.12080333,5.0594583,8.560656,0.01656737,-0.12090088,-7.74E-02
0.29921463,7.5954456,6.331388,0.015660774,-0.022358617,0.084891856,0.16540615,5.693455,8.003339,0.016340721,-0.096265316,-0.036802147
-0.9349432,6.5192986,8.823645,0.03171778,-0.011013986,-0.030648846,-0.109681174,5.899916,8.208415,0.020184986,-0.07495248,-0.03526382
0.18310085,9.586139,7.745103,-0.031870324,-0.05162195,0.056443006,-0.036485672,6.8214717,8.0925865,0.0071711587,-0.06911985,-0.012337115
0.34470248,5.817827,12.588366,0.02299114,-1.35E-04,0.0715692,0.058811367,6.5705605,9.216532,1.11E-02,-0.05187358,0.008639462
0.92766553,3.462034,9.522722,-4.72E-05,0.048152626,0.010948134,0.2760249,5.793429,9.293079,0.008332821,-0.026867028,0.00921663
1.8086939,5.6286936,7.2207956,0.023980167,0.040007766,-0.037513807,0.65919214,5.752245,8.775008,0.012244657,-0.01014833,-0.0024659792
0.24654448,13.010897,3.4153755,0.050741855,-0.010548564,-0.015755383,0.5560302,7.566908,7.4351,0.021868955,-0.010248388,-0.00578833
-0.13292015,10.860996,0.48140758,-0.007726618,0.012082513,0.022060052,0.38379264,8.39043,5.696677,0.014470062,-0.0046656625,0.0011737654
-0.13531423,7.135779,8.276593,0.009028525,0.010453546,-0.030183427,0.25401592,8.076768,6.341656,0.013109678,-8.86E-04,-0.0066655325
-1.0055692,-1.7750568,12.578789,0.020024087,0.015689528,-0.0063306135,-0.060880363,5.6138115,7.9009395,0.01483828,0.0032579869,-0.006581803
-0.9505049,9.4987545,3.8032196,0.009435759,0.005973867,0.027296044,-0.2832865,6.5850472,6.8765097,0.01348765,0.003936957,0.0018876586
1.6411071,2.739016,12.498587,-0.04274953,0.054726686,-0.008774072,0.1978119,5.6235394,8.282029,-5.72E-04,0.01663439,-7.78E-04
0.42490482,11.495432,1.3420858,-0.019245785,0.07805591,-0.075096525,0.25458515,7.0915127,6.5470433,-0.0052401805,0.03198977,-0.019357461
0.04184906,-0.44274116,15.797655,0.02002408,1.56E-04,-0.1517746,0.20140113,5.207949,8.859696,0.0010758843,0.024031354,-0.052461747
-0.10059981,6.186518,7.667295,0.02002408,1.56E-04,-0.1517746,0.1259009,5.4525914,8.561596,0.005812933,0.018062543,-0.07728996
1.156302,9.1911125,9.268947,0.06600765,-0.08327637,-0.041091725,0.38350117,6.387222,8.738434,0.020861613,-0.007272184,-0.068240404
0.37343174,7.8432345,4.538208,-3.28E-02,-0.07814512,-0.114151135,0.38098383,6.751225,7.6883774,0.0074386466,-0.024990417,-0.07971808
-0.16763459,8.927761,3.9372892,0.04499391,-0.09512715,-0.005539398,0.24382922,7.295359,6.7506056,0.016827462,-0.0425246,-0.06117341
0.09811038,0.58672136,13.772247,-0.03600675,-0.06519477,-0.01152587,0.20739952,5.6182,8.506016,0.003618909,-0.048192143,-0.048761524
0.6487531,6.466628,5.5413356,-0.066061296,-0.041981917,0.010587434,0.3177379,5.830307,7.764846,-0.013801143,-0.046639588,-0.033924285
-0.2873395,-0.7659444,10.274468,-0.026843775,-0.0030087486,-0.076644056,0.16646856,4.181244,8.392252,-0.0170618,-0.035731878,-0.044604227
1.4244411,7.1369753,5.3713546,-0.02024644,-0.0059409006,-0.030340504,0.48096168,4.9201765,7.6370277,-0.01785796,-0.028284134,-0.041038297
-1.7142224,6.9430532,11.830633,0.023980167,-0.07203646,-0.05697421,-0.06783438,5.4258957,8.685429,-0.0073984284,-0.039222218,-0.045022275
-0.5818137,1.0535706,10.324745,0.03522007,-0.0908511,0.028791204,-0.1963292,4.332814,9.095258,0.0032561962,-0.05212944,-0.026568905
0.72057605,5.7029104,8.608176,-0.022201205,-0.0461358,0.089022465,0.032897115,4.6753383,8.973488,-3.11E-03,-5.06E-02,0.0023289379
-0.31606865,4.709359,4.135999,9.56E-03,0.014217634,0.10026237,-0.054344326,4.6838436,7.764116,5.98E-05,-3.44E-02,0.026812296
-0.8188295,5.9183793,9.850713,-0.0010652915,-0.15389234,1.14E-01,-0.2454656,4.9924774,8.285765,-2.21E-04,-0.06428723,4.85E-02
2.319834,8.621317,5.318684,0.066618524,-0.047968395,0.51320696,0.39585927,5.8996873,7.5439944,0.016488539,-0.060207523,0.16470267
1.6039984,6.43311,0.18573643,0.07859147,0.15569392,0.35181648,0.6978941,6.033043,5.70443,0.032014273,-0.006232165,0.21148112
-1.3383489,-2.8033223,18.488623,0.062220283,0.18416017,0.008266146,0.18883336,3.8239517,8.900478,0.039565776,0.04136592,1.61E-01
1.0006856,8.372332,1.0380356,0.08372273,0.3539806,-0.05587465,0.3917964,4.9610467,6.934868,0.050605014,0.11951959,0.10653937
1.5345696,11.238068,3.5063515,0.04035134,0.04634912,-0.15300214,0.6774897,6.530302,6.077739,0.048041597,0.10122697,0.04165399
-1.3120137,3.557798,8.373554,-0.0024091918,-0.041004535,0.021338653,0.18011385,5.787176,6.6516924,3.54E-02,0.06566909,0.036575157
1.9176253,15.147631,-0.9754014,8.89E-04,0.046837814,9.36E-04,0.6144917,8.12729,4.744919,0.026794046,0.06096127,0.02766531
-0.07665883,-0.7683385,16.350693,-9.43E-04,0.044027828,0.010465258,0.44170406,5.903383,7.6463623,0.019859754,0.05672791,0.023365296
1.8458024,14.52277,-2.1173866,0.002111203,0.027045794,-0.042802144,0.79272866,8.058229,5.2054253,0.015422616,0.04930738,0.0068234354
-0.7134891,14.83161,-0.6833214,0.0065094214,0.0016338192,0.023659937,0.41617423,9.7515745,3.7332387,0.013194317,0.037388988,0.011032561
-0.5818137,-2.0348167,12.371699,-0.038450215,-0.046380144,0.043574125,0.16667725,6.8049765,5.8928537,2.83E-04,0.016446706,0.019167952
-0.6775776,12.102336,-2.8356164,0.016771961,0.05758904,-0.08018707,-0.04438646,8.129316,3.7107363,0.004405378,0.026732288,-0.0056708027
0.71099967,13.639348,-5.4858837,0.0018668603,-0.038194556,0.002768362,0.14446007,9.5068245,1.4115813,0.0037707486,0.010500576,-0.0035610115
1.5345696,9.538258,9.9823885,-0.02806551,-3.21E-04,-0.0049285344,0.49198747,9.514683,3.5542831,-0.0041883164,0.007795196,-0.0039028921
-10.668152,-22.320017,18.321035,-0.09831497,-0.058841784,-0.016779311,-2.2980473,1.5560079,7.245971,-0.02771998,-0.008864049,-0.007121997
0.93604493,15.815585,2.2709963,0.09056439,-0.029886788,0.0793708,-1.4895242,5.120902,6.002228,0.0018511135,-0.014119733,0.014501201
-1.3622899,1.3480448,6.1781654,0.034975722,-0.021253243,0.0544068,-0.34057248,0.3370112,1.5445414,0.008743931,-0.005313311,0.0136017
2.5951552,15.626451,2.723481,2.79E-04,-0.004352653,0.11394576,0.39335942,4.159371,1.8392763,0.006627601,-0.0050731464,0.038687713
0.15556875,7.3931437,7.5284376,0.027278833,0.03181054,-0.03144006,0.33391175,4.967814,3.2615666,0.01179041,0.004147775,0.02115577
-1.221038,2.7725334,2.7402396,-0.027576823,0.006765087,-0.104866,-0.054825693,4.418994,3.131235,0.0019486016,0.004802103,-0.010349672
0.19148022,12.696074,-0.94667226,0.029477946,-0.052244447,-0.051842943,0.006750785,6.488264,2.1117582,0.008830938,-0.009459535,-0.020722989
-0.79488844,7.1082463,7.7702413,-0.020490792,-0.027687687,0.04125284,-0.19365901,6.6432595,3.526379,0.001500505,-0.014016572,-0.0052290317
-0.2897336,6.12906,11.354207,0.03326531,-0.0030087505,0.038931556,-0.21767765,6.5147095,5.483336,0.009441706,-0.011264617,0.0058111157
1.3214948,0.33055282,16.056217,0.008219865,0.0076202955,-0.068824984,0.16711545,4.9686704,8.126556,0.0091362465,-0.0065433886,-0.01284791
1.6614568,4.484314,7.1645346,0.061731607,0.012018522,-0.036204807,0.5407008,4.8475814,7.886051,0.022285087,-0.0019029109,-0.018687135
-0.8619233,-0.20811939,12.101166,-0.00925088,-0.051511407,0.032456387,0.19004476,3.5836563,8.93983,0.014401095,-0.014305035,-0.0059012547
-1.0390866,-6.7057037,20.265043,-0.021834688,0.009330716,0.06666482,-0.117238075,1.0113163,11.771133,0.005342149,-0.0083960965,0.012240265
0.12923366,2.8706913,7.403944,0.004188151,0.02105932,0.024026453,-0.05562014,1.47616,10.679337,0.0050536497,-0.0010322426,0.015186812
-0.3088864,3.2345943,14.275008,-0.033929806,0.029977944,0.031234656,-0.11893671,1.9157686,11.578255,-0.0046922145,0.006720304,0.019198772
0.052622512,12.109519,3.4177697,0.002111205,0.024480155,8.06E-05,-0.07604691,4.464206,9.538134,-0.0029913597,0.011160267,0.014419218
-1.2497673,-6.983419,19.204458,-0.07925597,0.037186153,-0.029363122,-0.369477,1.6022999,11.954715,-0.02205751,0.017666738,0.003473633
-0.3663448,10.464773,3.2334242,-0.013038239,0.008475507,-0.07884316,-0.36869395,3.8179183,9.774392,-0.019802693,0.015368931,-0.017105564
-0.36155653,2.5450945,5.268408,-0.054577038,-0.07643468,0.037098963,-0.3669096,3.4997125,8.647896,-0.02849628,-0.0075819716,-0.0035544327
2.587973,10.1296,-0.95385456,-0.020124266,0.05710034,0.016573906,0.37181106,5.157184,6.2474585,-0.026403276,0.0085886065,0.0014776522
2.5185444,15.829947,0.34853518,0.044505224,0.10743559,-0.08825049,0.90849435,7.825375,4.7727275,-0.008676151,0.033300355,-0.020954382
0.864222,-3.6580157,13.17851,-0.01841385,0.054779053,-0.27004382,0.89742625,4.9545274,6.874173,-0.011110576,0.03867003,-0.08322674
-0.44535005,4.3430624,0.49936336,0.012618084,-0.1071001,-0.19893917,0.5617322,4.801661,5.280471,-0.0051784106,0.0022274964,-0.11215485
1.3741649,6.7275844,3.9708066,0.009075071,-0.17014134,-0.08690658,0.76484036,5.283142,4.953055,-0.0016150402,-0.040864713,-0.105842784
0.48834848,3.775661,7.257904,-0.033318944,-0.14924975,9.36E-04,0.6957174,4.906272,5.5292673,-0.009541016,-0.06796097,-0.07914814
-0.1125703,1.8388351,13.106687,0.02593493,-0.12310474,0.009976565,0.4936455,4.139413,7.423622,-6.72E-04,-0.08174691,-0.056866966
0.5817183,0.74952006,12.625474,-0.010472604,-0.031841565,0.03709896,0.5156637,3.2919397,8.724085,-0.003122173,-0.06927057,-0.033375487
-1.2784964,0.63939154,7.6768713,0.049514316,0.0033442434,-0.054530747,0.06712365,2.6288028,8.462281,0.010036949,-0.05111687,-0.038664304
-2.458787,-1.7140075,10.635977,0.03888526,-0.032696772,-0.13015579,-0.564354,1.5431002,9.005705,0.017249025,-0.046511844,-0.061537176
0.41891962,5.9662614,4.8877463,-0.016703427,-0.08205465,-0.081408806,-0.3185356,2.6488905,7.9762154,0.008760912,-0.055397548,-0.06650508
0.055016592,3.5434332,8.325672,0.03705267,-0.09341673,0.03795417,-0.22514755,2.8725262,8.06358,0.015833851,-0.06490234,-4.04E-02
1.5321754,5.3150663,7.6313834,-0.032463733,-0.06311784,0.08108122,0.21418321,3.4831612,7.9555306,0.003759455,-0.06445622,-0.010022396
0.70621145,8.812845,9.9776,0.031432718,0.0032220706,0.02537036,0.33719027,4.8155823,8.461048,0.010677771,-0.047536645,-0.0011742078
0.07177529,8.432183,9.647215,-0.008029147,-0.02328946,-0.006883299,0.27083653,5.7197323,8.757589,0.0060010413,-0.04147485,-0.0026014806
0.031075612,-1.4506567,18.196543,0.032287925,-0.111253984,-0.0023629013,0.2108963,3.927135,11.117328,0.012572763,-5.89E-02,-0.002541836
0.80197537,7.3261094,3.4728339,0.027401008,-7.79E-02,0.25920936,0.35866606,4.7768784,9.206204,0.016279824,-6.37E-02,0.06289597
1.3095243,9.940465,6.9299126,0.028256215,-0.0443032,0.32396105,0.5963806,6.067775,8.637132,1.93E-02,-0.058824487,0.12816224
1.6518805,6.72519,11.540947,0.067107216,0.17976198,0.4523648,0.8602556,6.2321286,9.363086,3.12E-02,8.22E-04,0.20921287
0.11726317,-3.2246838,17.629139,0.10998991,0.2856859,0.1105249,0.6745075,3.8679256,11.429599,5.09E-02,0.07203807,0.18454088
0.83788687,2.1428857,10.422903,0.0073646447,0.26479435,-0.05868463,0.71535236,3.4366655,11.177925,0.04003241,0.12022714,0.123734504
0.768458,8.039552,12.098772,-0.004363959,0.20664003,-0.10889771,0.72862875,4.587387,11.408136,0.028933316,0.14183037,0.06557645
0.74691117,16.18188,-8.24628,0.05256861,-0.022312075,-0.1062099,0.73319936,7.4860106,6.4945326,0.03484214,0.10079476,0.022629865
1.8649552,8.5471,13.743518,-0.008273502,-0.08779677,0.21828146,1.0161383,7.7512827,8.306779,0.02406323,0.053646877,0.07154276
-0.37352705,-5.0657463,17.672234,0.030333158,0.10157131,0.15866104,0.668722,4.5470257,10.648143,0.025630713,0.065627985,0.09332233
-0.29930997,0.869225,17.176657,-0.12006175,0.1394449,-0.21616554,0.426714,3.6275754,12.280272,-0.010792404,0.084082216,0.01595036
0.22978581,17.295135,-2.3974962,-0.03661762,-0.010827822,-0.10437731,0.37748197,7.0444655,8.610829,-0.017248709,0.060354706,-0.014131557
0.72775835,5.8585267,9.596939,0.009319411,-0.021660488,0.009202805,0.18193959,1.4646317,2.3992348,0.0023298527,-0.005415122,0.0023007013
-0.61772513,5.4587126,8.162873,0.0027220724,0.0056655277,-0.008471548,-0.017976597,2.463152,3.8401444,0.0024279077,-0.0026449596,-3.92E-04
0.016711026,7.3285036,6.628256,0.003455109,0.025701892,-0.0050507057,-0.009304691,3.6794899,4.5371723,0.002684708,0.004441753,-0.0015569471
0.37103763,6.7922254,6.3720875,0.0071202973,0.009086372,-0.19087575,0.08578089,4.4576735,4.995901,0.0037936054,0.005602908,-0.04888665
-2.6311622,7.848023,8.883497,-0.0075404556,-0.08168812,-0.49313167,-0.59345484,5.3052607,5.9678,9.60E-04,-0.01621985,-0.1599479
-3.7037184,8.3412075,9.774102,0.05965466,-0.16867527,-0.17413807,-1.3710208,6.064247,6.9193754,0.015633732,-0.054333705,-0.16349545
-0.19157557,5.0612917,6.5348864,0.03497573,-0.053099655,0.47985375,-1.0761595,5.813508,6.823253,0.020469232,-0.05402519,-0.0026581585
1.7667972,7.4721494,2.0938332,-0.031119835,-0.007040457,0.26214153,-0.36542034,6.2281685,5.640898,0.0075719655,-0.04227901,0.06354176
0.11247496,9.054649,9.616091,-0.010228259,0.0861775,0.33116925,-0.24594651,6.9347887,6.6346965,0.0031219097,-0.010164883,0.13044864
-0.22988115,8.0012455,13.07317,-0.006685247,0.03743049,-0.2814059,-0.24193017,7.2014027,8.244315,6.70E-04,0.0017339606,0.027485006
-1.0127516,3.7660847,8.969685,0.002233374,0.005421183,-0.20297088,-0.43463552,6.342573,8.425657,0.0010609339,0.0026557662,-0.030128963
-1.314408,1.0990585,11.153103,-0.0072961054,0.022158872,-0.099856906,-0.6545786,5.0316944,9.107519,-0.001028326,0.0075315423,-0.04756095
-0.15326999,3.8953657,8.928985,-0.019757751,-0.1111318,-0.1875771,-0.52925146,4.747612,9.062885,-0.0057106824,-0.022134293,-0.08256499
-0.4788674,9.897371,8.42383,0.005409877,-0.066049986,0.08865594,-0.51665545,6.035052,8.903122,-0.0029305425,-0.033113215,-0.039759755
-1.364684,4.4914966,0.53048664,0.009075065,-0.082787685,-1.64E-04,-0.7286626,5.6491632,6.809963,7.09E-05,-0.04553183,-0.029860763
0.694241,4.625566,6.068037,0.007242472,-0.04650233,0.030868143,-0.37293673,5.393264,6.6244817,0.0018637625,-0.045774456,-0.014678536
1.8338319,8.618923,2.9581027,-0.015115177,0.048303884,0.222924,0.1787554,6.1996784,5.7078867,-0.0023809725,-0.022254871,0.044722095
0.28245598,12.71762,7.205234,-0.025866415,0.014095467,-0.32147864,0.20468055,7.8291636,6.0822234,-0.008252333,-0.013167286,-0.04682809
-0.46929103,17.481874,-8.306132,0.02837839,-0.13544422,-0.16008815,0.03618765,10.242341,2.4851346,9.05E-04,-0.04373652,-0.07514311
0.11726317,11.858138,5.2348905,0.03974047,-0.06861562,0.20349851,0.05645653,10.64629,3.1725736,0.010614129,-0.049956296,-0.0054827034
0.888163,16.651123,4.6770654,-0.013038236,0.09143093,0.1587832,0.26438314,12.147498,3.5486965,0.004701038,-0.01460949,3.56E-02
1.1251787,5.7316394,12.512951,-0.05934178,9.01E-04,-0.15031436,0.479582,10.543533,5.78976,-0.0113096675,-0.010731921,-0.0108907595
-0.34479785,10.785583,-10.44885,0.004065971,-0.047724035,0.08486858,0.27348703,10.604046,1.7301078,-0.007465758,-0.01997995,0.013049075
2.0181777,7.7785935,5.1582794,-0.089640684,0.02692362,0.19567946,0.7096597,9.897683,2.5871506,-0.02800949,-0.008254058,0.05870667
-0.7326419,2.592976,17.205385,-0.067283034,0.10633604,-0.28299418,0.34908432,8.0715065,6.241709,-0.037827875,0.020393468,-0.026718542
-2.8274782,5.2743664,4.033053,-0.035029367,-0.05114489,-0.117205456,-0.44505632,7.3722215,5.689545,-0.037128247,0.0025088787,-0.04934027
-0.7134891,1.2450985,14.239096,-0.026232913,-0.04845709,0.052370586,-0.51216453,5.8404408,7.826933,-0.034404412,-0.010232613,-0.023912556
0.08374579,10.0889,6.0752196,-0.018658193,-0.03868325,-0.052820325,-0.36318696,6.9025555,7.3890047,-0.030467857,-0.017345272,-0.031139499
-0.004835874,3.4309106,6.2260475,-0.023178592,0.036575284,0.10185062,-0.27359918,6.034644,7.0982656,-0.028645542,-0.003865133,0.002108032
1.0988436,12.334564,3.4345284,-0.015359525,0.07493759,-0.07676622,0.0695115,7.609624,6.182331,-0.025324037,0.015835546,-1.76E-02
1.5106286,7.9342103,7.5547724,0.023002777,-0.026465956,-0.12685713,0.42979077,7.6907706,6.525441,-0.013242334,0.0052601704,-0.04492218
0.10289857,9.950043,7.284239,0.00638726,-0.033063293,-0.09753562,0.3480677,8.255589,6.7151403,-0.008334936,-0.004320695,-0.05807554
0.95759183,1.8938993,13.262304,-3.00E-02,-0.062262625,-0.123191945,0.5004487,6.6651664,8.351932,-0.013756272,-0.018806178,-0.07435464
0.49074256,5.908803,11.392513,0.030699674,-0.070692554,-0.14359482,0.49802217,6.4760756,9.112077,-0.002642286,-0.031777773,-0.09166469
-0.14608769,4.843429,8.02641,0.029966637,-0.15633579,-0.24964094,0.3369947,6.067914,8.84066,0.0055099446,-0.06291728,-0.13115875
-0.68954813,4.0509825,7.1429873,-0.027088124,-0.11418612,0.1827291,0.08035898,5.563681,8.416242,-0.002639573,-0.07573449,-0.052686796
-1.4245365,2.6815577,11.509824,0.011640695,-0.022434248,-0.17560413,-0.29586488,4.84315,9.189637,9.30E-04,-0.06240943,-0.083416134
-0.9121992,2.9185734,10.243345,0.009808105,-0.15694666,-0.29203495,-0.44994846,4.362006,9.453064,0.0031498969,-0.08604374,-0.13557084
-1.8674449,8.609346,7.4757667,0.1154877,-0.39151874,0.4677586,-0.8043226,5.4238415,8.958739,0.031234348,-0.1624125,0.015261516
1.98466,4.1275935,4.3083744,0.06197594,-0.23623693,1.0908406,-0.10707694,5.0997796,7.7961483,0.038919747,-0.1808686,0.28415626
0.7373348,5.6310873,10.568943,0.17083205,0.27469036,1.1421531,0.10402599,5.2326064,8.489347,0.07189782,-0.06697886,0.4986555
5.03953,5.2647905,10.9376335,0.5060746,0.6402317,0.7325073,1.337902,5.2406526,9.101419,0.18044202,0.10982379,0.5571184
1.1874253,10.649118,4.1623344,0.15152873,0.5495795,-0.75470394,1.3002827,6.592769,7.866648,0.17321369,0.21976271,0.22916281
2.7244368,20.95332,-6.3812766,0.04926995,-0.10917704,-0.14212875,1.6563213,10.182907,4.304667,0.14222775,0.13752778,0.13633992
0.30639696,2.5594587,11.387724,-0.14412981,-0.080222055,0.16586924,1.3188403,8.277045,6.0754313,0.07063836,0.08309032,0.14372225
-0.10299392,-3.085826,28.134445,-0.0565318,0.16815555,-0.0556303,0.9633817,5.4363275,11.590185,0.03884582,1.04E-01,0.09388411
-0.1125703,5.7795215,7.257904,0.0032107625,0.0052175596,-9.78E-04,-0.028142575,1.4448804,1.814476,8.03E-04,0.0013043899,-2.45E-04
0.36146122,5.9255614,7.978528,-0.0052191704,0.008475507,-0.010304142,0.06925838,2.5650506,3.355489,-7.03E-04,0.003097169,-0.0027594618
0.07656349,5.8824677,8.045563,0.0030885898,-0.0065517663,-0.14457221,0.071084656,3.394405,4.5280075,2.45E-04,6.85E-04,-0.03821265
0.37103763,7.263863,5.5030293,0.00382163,0.026190586,-0.03754871,0.1460729,4.3617697,4.771763,0.0011392074,0.007061348,-0.038046665
0.050228402,7.4482083,5.2324963,0.012618081,-0.048212737,-0.22569506,0.12211177,5.1333795,4.886946,0.0040089255,-0.006757173,-0.08495876
-0.20833428,7.7402883,7.0448294,-0.007540455,-0.022678595,-0.12942277,0.03950025,5.7851067,5.426417,0.0011215804,-0.010737529,-0.09607476
-0.72785366,6.950236,7.0759525,0.020925842,-0.0025200592,-0.05391988,-0.15233822,6.076389,5.838801,0.006072646,-0.008683162,-0.08553604
-2.1355836,9.260541,4.387379,0.04988083,-0.12664777,-0.40113539,-0.64814955,6.872427,5.4759455,0.017024692,-0.038174316,-0.16443588
-2.0254552,6.8209543,1.3229334,0.0675959,-0.14949411,-0.29973185,-0.992476,6.859559,4.4376926,0.029667493,-0.06600426,-0.19825988
-3.59359,8.326843,7.4997077,0.07517062,-0.26494756,-0.16656333,-1.6427546,7.2263803,5.2031965,0.041043274,-0.11574009,-0.19033574
-0.06229426,6.5983033,3.3220057,0.075659305,-0.21558969,0.10563799,-1.2476394,7.069361,4.7328987,0.04969728,-0.14070249,-0.116342306
0.32076156,11.479872,-2.9744742,-0.012183027,-0.10856616,0.40874907,-0.8555392,8.1719885,2.8060555,0.034227204,-0.1326684,0.014930546
0.14838645,4.426856,3.1400542,-0.02220121,0.07066154,-6.52E-04,-0.60455775,7.2357054,2.8895552,0.0201201,-0.08183592,1.10E-02
-0.251428,6.9957232,7.3919735,-0.04150454,2.01E-02,-0.10022343,-0.5162753,7.1757097,4.0151596,0.0047139395,-0.056356456,-0.016779765
1.1539079,5.5568705,6.8269663,0.01420633,0.010430273,-0.02142188,-0.09872949,6.771,4.718111,0.007087037,-0.039659776,-0.017940294
0.50510716,10.254092,8.158086,0.029233601,0.045371734,-0.027286183,0.052229673,7.641773,5.578105,0.012623678,-0.018401898,-0.020276766
0.031075612,8.705111,4.8709874,-0.020979479,-0.08303203,-0.09973473,0.046941157,7.9076076,5.4013257,0.0042228885,-0.03455943,-0.04014126
0.19866252,11.872503,1.7490829,-0.003264403,-0.02451118,0.14143464,0.0848715,8.898831,4.488265,0.0023510656,-0.03204737,0.005252715
-0.4070444,4.393338,9.04869,-0.006807418,0.07774757,0.072773464,-0.038107477,7.772458,5.6283712,6.14E-05,-0.0045986343,0.022132903
-1.2114617,4.304756,5.613158,-0.008273492,-0.030497659,-0.12331411,-0.33144602,6.905533,5.624568,-0.0020222894,-0.01107339,-0.014228851
-0.52196115,6.0907545,1.799359,0.027889699,-0.06470609,0.05212623,-0.3790748,6.7018385,4.668266,0.005455707,-0.024481565,0.0023599193
-0.38789165,6.1386366,0.40359944,-0.025499877,0.048303884,-0.063449375,-0.38127902,6.561038,3.6020992,-2.28E-03,-0.0062852018,-0.014092404
-0.5052025,0.97695947,5.893268,0.043039136,-0.08791895,-0.13528706,-0.41225988,5.165018,4.1748915,0.009047393,-2.67E-02,-0.04439107
-0.33522147,1.8436233,8.763792,-0.03954977,-0.12884687,0.12738475,-0.39300027,4.334669,5.322117,-0.0031018984,-0.052231945,-0.0014471151
1.4555644,6.375652,5.4551477,0.0019890321,0.075304106,0.02830251,0.06914088,4.844915,5.3553743,-0.0018291657,-0.02034793,0.005990291
0.77803445,9.286877,3.5302925,-0.022201212,0.13871187,-0.10645425,0.24636427,5.955405,4.899104,-0.006922177,0.019417018,-0.022120845
0.35906714,1.2043989,16.807966,0.01310677,-0.023167286,-0.19955003,0.27453998,4.7676535,7.87632,-0.0019149403,0.008770942,-0.06647814
1.3214948,-6.3154655,16.575737,0.033998337,-0.09512715,0.08609032,0.5362787,1.9968739,10.051174,0.007063379,-0.01720358,-0.028336026
-0.69912446,8.970856,5.345019,-0.06007482,0.08275666,-0.26283562,0.22742793,3.7403693,8.874636,-0.009721171,0.007786479,-0.08696093
1.2448837,-8.826875,23.82028,0.04132872,-0.08975154,-0.20211567,0.48179185,0.5985584,12.611047,0.0030413019,-0.016598027,-0.11574961
-2.0374258,-6.9499016,20.789352,-0.06545043,-0.1391094,0.0039900932,-0.14801252,-1.2885566,14.655623,-0.014081632,-0.04722587,-0.085814685
0.9528037,1.8747464,8.4765,0.119030714,-0.108932704,0.06568743,0.12719154,-0.49773085,13.110843,0.019196454,-0.06265258,-0.047939155
-1.0654217,15.920924,-0.5612224,0.008952892,-0.19995153,-0.015313234,-0.17096177,3.606933,9.692826,0.016635563,-0.096977316,-0.039782673
-0.347192,-0.31585383,13.958987,-0.004486129,0.12906021,0.23049875,-0.21501932,2.6262364,10.759367,0.01135514,-0.040467933,0.027787685
-0.0024417788,6.5480275,6.7862663,0.03619746,0.21592517,-0.10596556,-0.16187494,3.6066842,9.766092,0.01756572,0.023630343,-0.0056506246
-1.0271161,4.1802635,4.198246,0.04071786,0.04879258,-0.14823739,-0.3781852,3.7500792,8.37413,0.023353755,0.029920902,-0.041297317
-1.486783,6.2655234,-3.096573,-0.18408035,-0.0104613,-0.14750436,-0.65533465,4.37894,5.5064545,-0.02850477,0.01982535,-0.06784908
-1.4173541,-2.0970635,12.177777,0.018360209,-0.012416074,-0.16057688,-0.8458395,2.7599392,7.174285,-0.016788526,0.011764994,-0.09103103
-0.13651131,16.67267,0.18573643,-0.009861739,-0.06983735,-0.14139572,-0.66850746,6.238122,5.427148,-0.015056829,-0.008635592,-0.1036222
-2.2074068,2.8539329,4.205428,0.035342243,-0.2118023,-0.1758485,-1.0532323,5.3920746,5.121718,-0.0024570609,-0.05942727,-0.12167877
-1.2856787,14.132532,-1.6720842,-0.0407715,-0.49805355,0.0333116,-1.1113439,7.577189,3.4232674,-0.012035671,-0.16908383,-0.082931176
4.7354794,15.331976,3.5949328,0.029844463,0.118064635,1.1513162,0.35036194,9.515885,3.4661837,-0.0015656371,-0.097296715,0.22563066
-0.92177576,4.7213297,9.14206,0.065885484,0.35190365,-0.16424206,0.032327533,8.317246,4.885153,0.015297143,1.50E-02,0.12816247
0.19866252,4.5441666,7.2411456,0.053423844,0.32930166,0.052370586,0.07391128,7.3739767,5.474151,0.024828818,0.093577944,0.1092145
0.71099967,8.867909,12.522527,0.026057106,0.2514775,-0.25526088,0.23318338,7.74746,7.236245,0.02513589,0.13305283,0.018095657
0.22020942,11.156668,4.1144524,0.010174614,0.08385621,-0.28519326,0.2299399,8.599762,6.455797,0.021395572,1.21E-01,-0.057726577
-0.7242625,5.616723,8.09943,-4.54E-04,0.006788357,-0.009646735,-0.18106562,1.4041808,2.0248575,-1.14E-04,0.0016970893,-0.0024116838
-0.5075966,4.936799,7.9928923,-0.0020833975,-0.015551839,-0.018082486,-0.26269835,2.2873354,3.5168662,-6.06E-04,-0.0026151428,-0.0063293846
-0.08862935,6.3900166,8.4765,0.0074868174,-0.021823382,-0.110485956,-0.2191811,3.3130057,4.7567744,0.001417164,-0.007417203,-0.032368526
0.4021609,4.9296165,7.628989,0.0055320477,0.0072537763,0.083524674,-0.063845605,3.7171583,5.4748282,0.002445885,-0.0037494581,-3.40E-03
-0.35676837,6.57915,6.7527494,0.0012559956,0.0048103184,-0.05343119,-0.13707629,4.4326563,5.7943087,0.0021484126,-0.001609514,-0.015904218
1.7117329,7.002906,6.3098407,0.008464201,-0.08303203,-0.38451988,0.325126,5.0752187,5.9231915,0.0037273597,-0.021965142,-0.10805813
-5.22876,5.1714206,8.42383,0.0028442442,-0.18590164,-0.8060165,-1.0633454,5.099269,6.5483513,0.0035065808,-0.06294927,-0.2825477
0.5912947,6.059631,9.584968,0.05146908,-0.09439412,-0.09924603,-0.6496854,5.3393593,7.3075056,0.015497206,-7.08E-02,-0.23672229
-0.86431736,8.085039,8.735063,-0.044436686,0.034376167,0.2576211,-0.7033434,6.0257792,7.664395,5.14E-04,-0.04451382,-0.11313644
-0.323251,6.466628,8.90265,0.023735818,0.024113644,0.045284547,-0.6083203,6.1359916,7.9739585,0.0063192537,-0.027356956,-0.073531196
-0.9265638,8.9157915,-0.25956595,0.0060207434,-0.04906795,-0.026064452,-0.6878812,6.8309417,5.9155774,0.006244626,-0.032784704,-0.06166451
-1.9320854,5.9878078,9.130089,0.014206327,-0.055054426,-0.5140232,-0.99893224,6.620158,6.7192054,0.008235051,-0.038352136,-0.17475417
0.36864352,6.6150618,5.0170274,0.013106772,-0.1030684,-0.23326977,-0.65703833,6.618884,6.293661,0.009452982,-0.0545312,-0.18938307
0.6104475,7.0172706,5.756804,0.022514086,-0.10600054,-0.27102122,-0.34016687,6.7184806,6.1594467,0.012718258,-0.06739853,-0.20979261
-0.7134891,6.516904,5.888479,0.013595463,-0.19836327,-0.011037167,-0.43349743,6.6680865,6.091705,0.01293756,-0.10013972,-0.16010375
2.2982872,8.101798,6.9323063,-0.0038752682,-0.022067731,0.39799783,0.24944872,7.0265145,6.301855,0.008734353,-0.08062173,-0.020578355
-0.8140412,1.4102914,18.572416,0.006631608,0.13639057,-0.117694154,-0.016423762,5.6224585,9.369495,0.008208667,-0.026368655,-4.49E-02
-2.1643128,4.728512,11.193802,0.04572695,-0.045280587,-0.083607905,-0.55339605,5.3989716,9.825572,0.01758824,-0.031096637,-0.054544955
0.33273205,6.6988554,8.8332205,-0.015481697,0.0062763933,0.12701824,-0.33186403,5.7239428,9.577484,0.009320755,-0.02175338,-0.009154156
-0.59139,9.432917,13.975745,-0.019513406,0.02741231,0.045773234,-0.39674553,6.651186,10.67705,0.0021122145,-0.009461958,0.0045776917
0.9073158,4.4962845,12.730814,0.047681723,0.04634912,-0.015068887,-0.07073021,6.1124606,11.190491,0.013504592,0.0044908114,-3.34E-04
-0.7541888,7.239922,3.0538666,8.89E-04,0.0056655286,-0.023865338,-0.24159485,6.394326,9.156335,0.010350813,0.004784491,-0.006216799
0.81873417,11.405654,4.7632527,0.01860455,0.019837592,0.010953953,0.02348739,7.647158,8.058064,0.012414248,0.008547766,-0.001924111
-0.3088864,-2.8823276,20.885117,0.06368637,-0.03489589,-0.057462897,-0.05960606,5.0147867,11.264828,0.025232278,-0.0023131482,-0.015808808
0.9073158,6.804196,10.884964,-0.029409412,-0.045036238,0.08413554,0.1821244,5.462139,11.169862,0.011571855,-0.012993921,0.009177279
1.3598003,2.420601,17.97868,0.025812756,0.036941804,-0.07187931,0.4765434,4.7017546,12.8720665,0.015132081,-5.10E-04,-0.01108687
0.14599234,2.8299918,13.662118,0.039496124,-0.06055221,0.029524237,0.39390564,4.233814,13.069579,0.02122309,-0.015520545,-9.34E-04
-0.13172309,2.5762177,9.862684,-0.013282578,-0.037095003,0.091099404,0.26249844,3.8194146,12.267856,0.012596673,-0.02091416,0.022074282
2.1929467,13.514855,3.3435526,-0.031975046,0.08043538,2.03E-04,0.7451105,6.2432747,10.036779,0.0014537433,0.0044232253,0.016606394
1.8434083,12.296258,3.2884884,-0.0058300337,0.036697462,-0.15361302,1.019685,7.7565203,8.349707,-3.67E-04,0.012491785,-0.025948457
0.27527368,10.570113,10.868205,0.0045546656,-0.07973336,0.0586014,0.83358216,8.459919,8.979331,8.63E-04,-0.0105645005,-0.0048109926
0.41173732,1.6951891,12.814607,0.0011338303,-0.004719169,0.12579651,0.7281209,6.7687364,9.93815,9.31E-04,-0.009103168,0.027840883
0.69663507,12.143036,7.435067,0.019215416,0.09619568,-0.08336357,0.7202495,8.112311,9.31238,0.005502034,0.017221544,3.98E-05
-0.53871983,6.100331,5.7639866,-0.029409412,6.99E-02,-0.15263562,0.40550715,7.6093163,8.425282,-0.0032258276,0.030398283,-0.038129076
1.0509617,-1.6661255,13.070776,0.0098081,-0.069593,-0.01177022,0.5668708,5.290456,9.586655,3.27E-05,0.005400464,-0.031539362
-1.1731561,0.18690687,15.019572,-0.02830986,-0.018402537,-0.087395266,0.13186407,4.0145683,10.944884,-0.007052974,-5.50E-04,-0.045503337
-1.4796008,0.6106624,10.341503,0.037174843,-0.06519478,-0.037060015,-0.27100214,3.1635919,10.794039,4.00E-03,-1.67E-02,-0.043392505
-0.09581162,11.994602,2.235085,0.0025998997,-1.13E-02,-0.038037397,-0.22720452,5.3713446,8.654301,3.65E-03,-1.54E-02,-0.04205373
-0.7422183,10.708971,6.585162,0.00919724,0.008475505,-0.10730946,-0.35595798,6.7057514,8.137016,5.04E-03,-0.0094031375,-0.058367662
-0.6823658,11.221309,5.850174,0.08457795,-0.031108525,-0.15397952,-0.43755993,7.8346405,7.5653057,0.02492376,-0.014829485,-0.08227063
-1.4436893,6.66055,6.0081844,-0.06716085,-0.049678814,-0.2043148,-0.6890923,7.5411177,7.1760254,0.0019026063,-0.023541817,-0.11278167
0.10289857,7.2111926,5.948332,0.07688105,-0.14986064,-0.109019876,-0.49109456,7.4586363,6.869102,0.020647217,-0.05512152,-0.111841224
-0.46929103,7.3332915,5.8908734,0.06368637,-0.17246261,-7.75E-04,-0.48564368,7.4273,6.624545,0.031407006,-0.084456794,-0.08407458
-1.12288,2.5426998,7.988104,-0.032708082,-0.17612779,0.11309054,-0.6449528,6.20615,6.965435,0.015378233,-0.10737454,-0.0347833
-0.13172309,6.272706,7.8109407,-0.028920721,-0.01791385,0.42231023,-0.5166454,6.222789,7.176811,0.0043034945,-0.085009366,0.07949008
0.26809138,7.0627584,3.7840667,0.064785935,0.11647639,0.09195462,-0.32046118,6.432781,6.328625,0.019424105,-0.034637928,0.08260621
0.9240745,6.8736243,6.747961,0.0049211867,0.062231608,0.10588233,-0.009327263,6.542992,6.4334593,1.58E-02,-0.010420544,0.08842524
2.8441417,7.9389987,2.2039616,0.063808545,0.34603938,0.26153067,0.70403993,6.8919935,5.376085,0.027800918,0.07869443,0.13170159
-0.5123848,2.4325714,9.098966,-0.0389389,0.362044,-0.3117048,0.39993376,5.7771378,6.306805,1.11E-02,0.14953183,0.020849988
0.76366985,7.1800694,7.090317,0.02190322,0.12429547,-0.51707757,0.4908678,6.1278706,6.502683,0.0138127785,0.14322273,-0.113631904
-0.5052025,4.1299872,10.391779,0.014695021,-0.016936464,-0.8857955,0.24185023,5.6284,7.474957,0.014033339,0.103182934,-0.3066728
-1.2330085,6.2798877,7.332121,0.29361588,-0.35584423,-1.3533515,-0.12686446,5.7912717,7.439248,0.08392897,-0.011573859,-0.56834245
-5.872772,3.9384594,4.0929055,0.3427294,-0.44979525,-1.1881735,-1.5633414,5.3280687,6.6026626,0.14862907,-0.12112921,-0.7233002
-0.8978347,3.634409,6.920336,0.49544555,-0.40935597,-0.7433418,-1.3969647,4.9046535,6.6820807,0.23533319,-0.1931859,-0.7283106
-3.306298,3.3806343,8.646481,4.40E-01,-0.49194488,-1.177056,-1.874298,4.5236487,7.1731806,0.2865252,-0.26787564,-8.40E-01
-1.5203004,3.2034712,5.438389,0.47919658,-0.5208999,-0.63607395,-1.7857985,4.1936045,6.739483,0.33469304,-0.3311317,-0.78939116
-3.1387112,4.845823,6.5348864,0.2700365,-0.4538269,-0.19661789,-2.1240268,4.356659,6.6883335,0.3185289,-0.3618055,-0.64119786
1.3214948,5.2240906,7.2770567,0.002396279,0.013362428,0.3834593,0.3303737,1.3060226,1.8192642,5.99E-04,0.003340607,0.095864825
-0.80925304,6.1410303,6.1350718,-0.0043639597,-0.07704555,0.1064932,0.04546702,2.5147746,2.898216,-6.42E-04,-0.016755933,0.09852192
2.1091535,6.346923,12.462675,-0.030142449,-0.021701211,0.4339167,0.5613886,3.4728117,5.2893305,-0.008016878,-0.017992252,0.1823706
0.74212295,6.8401074,-2.172451,0.06747373,0.22716506,0.19494641,0.6065722,4.3146358,3.423885,0.010855774,0.043297075,0.18551455
-0.8547408,-3.4521232,13.484955,0.046337817,0.19515577,-0.25012964,0.24124396,2.372946,5.9391527,0.019726284,0.08126175,0.0766035
1.0437794,6.7227964,12.129895,-0.022567727,0.011774177,-0.35299927,0.4418778,3.4604087,7.4868383,0.009152781,0.06388985,-0.030797191
-1.6591581,2.2434378,5.438389,0.027523179,-0.12359344,-0.23107067,-0.083381146,3.156166,6.9747257,0.013745381,0.01701903,-0.08086556
-0.4645028,5.7771273,4.538208,-0.015603866,0.021670187,0.05713532,-0.17866156,3.8114064,6.3655963,0.006408069,0.01818182,-0.046365343
-0.17960508,9.971588,4.018688,0.023857988,0.032421403,-0.17010635,-0.17889744,5.351452,5.778869,0.010770548,0.021741714,-0.07730059
-0.5099907,0.29464138,8.708728,-0.013160413,-0.13434465,0.014619139,-0.26167077,4.0872493,6.511334,0.004787808,-0.017279878,-0.05432066
1.0054739,7.292592,5.9650908,0.035586596,0.003099896,0.12665173,0.0551154,4.888585,6.374773,0.012487505,-0.012184935,-0.00907756
0.99350333,0.601086,10.437267,-0.009373049,0.09399657,0.1150453,0.28971237,3.8167105,7.3903966,0.007022366,0.014360441,2.20E-02
0.28963828,2.1572504,16.515884,0.007853336,0.026801448,-0.19002055,0.28969383,3.4018455,9.671768,0.0072301086,0.017470693,-0.03104027
-0.07187061,10.459986,7.473373,-0.030508965,-0.091461964,-0.11598374,0.19930272,5.1663804,9.1221695,-0.0022046603,-0.009762472,-0.05227614
0.37582582,12.825355,0.9087542,-0.06997084,0.018249344,0.17038962,0.24343349,7.081124,7.0688157,-0.019146204,-2.76E-03,3.39E-03
0.8139459,0.44786364,11.514612,-0.04761318,7.46E-02,-0.06711457,0.3860616,5.4228086,8.180264,-0.026262948,1.66E-02,-0.0142359175
-1.4053837,-2.183251,13.001347,-1.68E-03,-0.0028865791,-5.60E-02,-0.061799705,3.5212936,9.385535,-0.02011625,1.17E-02,-0.024676144
0.19387433,-2.4346313,13.379615,-0.05017881,-0.0011761533,0.015107828,0.0021188036,2.0323124,10.384055,-0.02763189,0.008487115,-0.014730151
-0.6464543,7.539184,3.7050614,-0.07815641,0.048303895,0.022682555,-0.16002446,3.4090304,8.714307,-0.04026302,0.01844131,-0.005376974
-1.5418473,2.5426998,8.993626,0.022025403,1.68E-04,-5.30E-04,-0.5054802,3.1924477,8.784137,-0.024690915,0.01387292,-0.0041653076
0.92886263,7.977304,8.141326,-0.03075331,0.013240254,0.08584597,-0.14689445,4.388662,8.623434,-0.026206514,1.37E-02,0.01833751
-0.89065236,6.3110113,8.404676,0.003332938,0.044272177,-0.054164227,-0.33283395,4.8692493,8.568745,-0.018821651,0.021354109,2.12E-04
1.836226,6.662944,4.1862755,0.022636257,0.02997794,0.041497186,0.20943105,5.3176727,7.4731274,-0.0084571745,0.023510067,0.010533354
-0.99120444,2.7892923,3.4895926,0.023735818,0.06931763,-0.037793055,-0.090727806,4.6855774,6.4772434,-4.09E-04,0.034961957,-0.0015482483
0.89295113,4.1491404,13.932651,-0.0032643974,-0.021334693,-0.22007509,0.15519193,4.551468,8.341095,-0.0011227946,0.020887796,-0.05617996
0.7947931,13.608224,2.3500016,-0.03454067,-0.050900545,-0.07053541,0.31509224,6.8156567,6.843322,-9.48E-03,0.0029407106,-0.059768822
-0.74940056,-3.1408901,13.32455,0.01933759,0.020081934,-0.16521946,0.04896903,4.32652,8.463629,-0.0022735498,0.0072260164,-0.08613148
0.32554975,-2.4801192,12.347758,0.026667971,0.0024890322,-0.19735092,0.11811421,2.6248603,9.434661,0.0049618306,0.0060417703,-0.11393634
-2.3989344,3.4500637,3.7840667,0.018115863,-0.122738235,-0.34676844,-0.5111479,2.831161,8.022013,0.008250339,-0.026153231,-0.17214437
-0.23706345,-3.7585678,19.257128,0.08384491,-0.15486972,-0.17584848,-0.4426268,1.1837288,10.830791,0.02714898,-0.058332354,-0.1730704
0.7516994,3.505128,6.0177608,0.12440632,-0.10905487,-0.33992675,-0.14404526,1.7640786,9.627534,0.051463317,-0.07101298,-0.21478449
0.50510716,7.639736,6.453487,0.11402162,-0.17698301,-0.2556274,0.018242836,3.2329931,8.8340225,0.067102894,-0.09750549,-0.22499521
0.35427895,6.950236,0.7746848,-0.008884357,-0.18858944,-0.28177243,0.102251865,4.162304,6.819188,0.04810608,-0.12027647,-0.23918952
-1.0821803,4.039012,7.1741104,0.18512629,-0.45309386,-0.70180297,-0.19385618,4.131481,6.907919,0.08236113,-0.20348081,-0.3548429
-1.4556597,3.1172838,8.000074,0.17107637,-0.521755,0.038198527,-0.5093071,3.8779318,7.180958,0.104539946,-0.28304935,-0.25658256
1.3119184,4.898493,11.765992,-0.01059478,-0.14570676,0.696955,-0.054000735,4.133072,8.327216,0.07575627,-0.2487137,-0.018198162
0.4476488,9.282088,8.471712,0.3182948,0.06296464,0.5523023,0.07141164,5.420326,8.36334,0.1363909,-0.17079411,0.12442696
5.0227714,40.783638,-18.55048,-0.1790713,0.3830578,0.5977506,1.3092515,14.261154,1.6348853,0.057525344,-0.03233114,0.24275787
0.7301524,6.277494,7.5547724,0.27516773,0.038896553,0.29305127,1.1644768,12.265239,3.1148572,0.11193594,-0.014524216,0.25533122
2.6023378,6.8233485,11.856968,0.07590368,0.09521829,0.2785127,1.523942,10.904766,5.300385,0.10292788,0.012911411,0.26112658
2.4108098,7.0603642,5.4000835,0.07724756,0.3404194,0.8411191,1.7456589,9.9436655,5.3253098,0.0965078,0.09478841,4.06E-01
-0.68954813,5.773536,7.6301866,-0.0019670427,0.02429981,-0.009704913,-0.17238703,1.443384,1.9075466,-4.92E-04,0.0060749524,-0.0024262283
0.12564251,5.773536,9.076222,0.0013490804,-4.84E-04,0.0012324741,-0.09787965,2.525922,3.6997156,-3.16E-05,0.0044352533,-0.0015115526
0.14120418,5.52455,8.530367,0.0046652015,0.009464525,-0.016395336,-0.03810869,3.275579,4.907378,1.14E-03,0.0056925714,-0.0052324985
-0.39267987,7.1034584,9.52751,0.015951652,-0.025092965,-0.1463059,-0.12675148,4.2325487,6.0624113,0.004844891,-0.0020038127,-0.04050085
-0.7266566,6.9227037,6.6809263,0.021594878,-0.091066346,-0.40269455,-0.27672777,4.9050875,6.21704,0.009032387,-0.024269447,-0.13104928
-0.2622015,6.592318,10.916086,0.01728974,0.041869443,0.4602537,-0.2730962,5.326895,7.391802,0.011096725,-0.0077347234,0.016776472
0.48715144,8.202349,3.4680457,-0.014766112,0.009929948,0.20206152,-0.08303429,6.0457587,6.410863,0.004631016,-0.0033185557,0.06309773
0.5027131,8.89185,5.9423466,0.010133895,-0.0063597807,-0.26417372,0.06340255,6.757282,6.2937336,0.006006736,-0.004078862,-0.018720135
-0.24304867,7.804929,3.5123365,0.016707964,-0.07919814,-0.18592486,-0.013210252,7.0191936,5.5983844,0.008682042,-0.02285868,-0.060521316
1.7751765,8.198758,4.179093,0.041491624,-0.067620784,0.01944206,0.43388647,7.314085,5.2435617,0.016884439,-0.034049205,-0.040530473
-0.03835325,6.7874374,9.140863,-0.016278729,-0.007290621,-0.04850937,0.31582654,7.182423,6.217887,0.008593647,-0.02735956,-0.0425252
-0.15686119,9.230616,0.56160975,0.021245819,-0.017122634,-0.14444423,0.1976546,7.6944714,4.8038177,0.01175669,-0.024800329,-0.06800495
1.45E+00,1.9992398,15.621689,0.0010581939,-0.07384579,-0.0790526,0.50973797,6.2706633,7.5082855,0.009082066,-3.71E-02,-0.070766866
0.37103763,3.5470245,9.047493,-0.043447666,0.05117786,0.059759147,0.47506288,5.5897536,7.8930874,-0.0040503666,-0.015001804,-0.038135365
0.30160877,13.000124,5.274393,0.06918415,0.018598408,-0.20849775,0.43169934,7.442346,7.238414,0.014258262,-0.006601751,-0.08072596
-1.6819019,4.675842,0.9853654,0.019733198,-0.028758153,0.17082015,-0.09670097,6.75072,5.675152,0.015626997,-0.0121408515,-0.017839432
1.8661523,1.5000701,9.450899,-0.0052831722,-0.031899743,-0.013835523,0.39401233,5.4380574,6.6190886,0.010399454,-0.017080575,-0.016838454
-0.39746803,3.8019962,-0.838938,0.055919655,0.069445625,-0.05956311,0.19614224,5.0290422,4.754582,0.021779504,0.004550975,-0.027519617
-3.2021546,1.9824808,2.352396,-0.07497993,0.0071374224,-0.21146484,-0.65343195,4.2674017,4.1540356,-0.002410356,0.0051975865,-0.07350592
2.0995767,15.855085,-1.4111274,-0.12373277,-0.033063285,0.0956547,0.0348202,7.164323,2.762745,-0.032740958,-0.004367631,-0.031215765
0.032272696,-9.221901,25.08556,0.069940455,0.014176909,0.054115906,0.034183323,3.0677671,8.343449,-0.0070706047,2.69E-04,-0.009882847
0.1878891,9.820761,2.915009,0.042713348,-0.045280587,-0.13711382,0.07260977,4.756016,6.9863386,0.0053753834,-0.011118769,-0.041690588
0.30041176,9.874627,1.9741281,0.027587175,-0.12795095,0.044167537,0.12956026,6.0356684,5.733286,0.010928331,-0.040326815,-0.020226058
-0.5267494,3.9683857,3.3387644,-0.03419743,0.098650776,-0.01604627,-0.03451714,5.5188475,5.1346555,-3.53E-04,-0.0055824183,-0.01918111
0.8953452,13.174892,2.863536,0.035441138,-0.017762586,-0.09598229,0.19794846,7.4328585,4.5668755,0.008595453,-0.00862746,-0.038381405
0.25731793,2.548685,12.177776,0.0025126245,-0.033645067,0.037768006,0.21279082,6.211815,6.4696007,0.0070747454,-0.014881862,-0.019344052
-0.542311,0.4897604,13.276669,0.07575822,-0.007465156,-0.0050507067,0.024015367,4.7813015,8.171368,0.024245614,-0.013027686,-0.015770717
-0.1664375,13.225168,2.4637213,0.014729914,0.024008928,-0.08498672,-0.023597851,6.892268,6.7444563,0.021866689,-0.0037685325,-0.033074714
0.379417,-0.5241406,23.112822,0.072907485,-0.035041332,-0.029368933,0.07715586,5.038166,10.836548,0.034626886,-0.011586732,-0.032148268
-0.4393648,-0.86769366,13.080353,-0.037571732,-0.05470536,0.0047813086,-0.051974297,3.561701,11.397499,0.016577233,-0.02236639,-0.022915874
-0.5997694,0.0013639927,12.538088,0.0012327274,5.05E-04,0.008039252,-0.18892308,2.6716168,11.682646,0.012741107,-0.016648497,-0.0151770925
2.3557456,15.0363035,-0.6186807,0.030845113,0.10313045,-0.043273382,0.4472441,5.762789,8.607314,0.017267108,0.013296239,-0.022201166
0.46440747,3.9001539,9.545465,-0.026110753,0.040415004,-0.24765125,0.45153496,5.29713,8.841852,0.0064226426,0.02007593,-0.07856369
-0.14848179,3.1855156,14.520403,-0.03285934,-0.1303944,-0.12774724,0.30153078,4.7692266,10.26149,-0.003397853,-0.017541653,-0.09085958
0.19148025,6.808984,7.8193197,0.09914562,-0.08385232,-0.013719168,0.27401814,5.2791657,9.650948,0.022238016,-0.03411932,-0.07157448
-0.6775776,5.5879936,6.3002644,0.047600266,-0.103109114,-0.055548854,0.036119193,5.356373,8.813276,0.02857858,-0.05136677,-0.06756807
-0.6273015,3.6176505,9.810013,0.010052449,-0.14472935,-0.05330902,-0.12973598,4.9216924,9.06246,0.023947047,-7.47E-02,-0.06400331
1.4172587,4.378974,10.640766,0.030699678,-0.18553512,-0.11329593,0.2570127,4.7860126,9.457037,0.025635205,-0.10241434,-0.07632647
-1.2521614,8.049128,8.067109,0.07089456,-0.30343202,0.0043566115,-0.12028083,5.6017914,9.109555,0.036950044,-0.15266876,-0.056155697
1.010262,7.6493125,8.605782,0.032410096,-0.11394178,0.87129587,0.16235489,6.113672,8.983612,0.035815056,-0.14298701,0.17570719
3.0979161,9.420946,12.070043,0.05611164,0.09912784,0.77722263,0.8962452,6.9404902,9.755219,0.040889204,-0.0824583,0.32608604
1.7691913,6.3062234,3.740973,0.18854712,0.43742472,0.17368832,1.1144817,6.7819233,8.2516575,0.077803686,0.047512457,0.2879866
1.4938699,11.894051,14.270219,-0.02440032,0.30596662,-0.16216512,1.2093288,8.059956,9.756298,0.052252684,0.11212599,0.17544867
0.70381737,5.331825,14.13615,-0.016825601,0.24805665,-0.09252653,1.082951,7.377923,10.851261,0.034983113,0.14610866,0.10845487
-0.19875787,7.103458,6.7359905,0.04609346,-0.06299566,-0.115495056,0.7625238,7.3093066,9.822443,0.0377607,9.38E-02,0.052467387
1.4665773,6.8286157,6.5640945,0.01347329,0.020692801,-0.6484134,0.49151754,2.7562494,3.1247878,0.0033683225,0.0051732003,-0.16210335
0.29155356,6.4843435,7.035253,0.033509653,-0.091706306,-0.33271855,0.44152653,3.688273,4.102404,0.010903656,-0.019046675,-0.20475715
-0.35820487,6.6720414,6.8619204,-0.022445554,-0.16134489,0.24222735,0.24159369,4.434215,4.792283,0.0025663534,-0.054621227,-0.09301103
0.5956041,7.295465,6.4338555,0.032287925,0.1548387,0.52004856,0.3300963,5.1495275,5.2026763,0.009996747,-0.0022562444,0.060253866
1.5206838,7.1039367,7.4772034,0.05916597,0.2459797,-0.05807376,0.6277432,5.6381297,5.771308,0.022289053,0.05980274,0.03067196
0.09715273,7.018228,5.3033614,-6.99E-04,-0.105634026,0.037221134,0.49509555,5.9831543,5.654321,0.016542096,0.018443547,0.032309253
0.05166486,6.5762773,7.519819,-0.012671718,0.07640366,0.29427302,0.3842379,6.131435,6.1206956,0.009238642,0.032933578,0.097800195
0.8144247,6.393847,7.4518256,-0.001920498,0.07420455,-0.22618373,0.49178457,6.1970377,6.453478,0.0064488566,0.04325132,0.016804218
-0.028776845,6.8635697,6.709655,0.002966418,-0.028176375,-0.1694955,0.3616442,6.363671,6.517522,0.005578247,0.025394397,-0.02977071
0.32315564,7.035945,6.522437,-0.022934247,-0.04992316,-0.035838287,0.35202205,6.531739,6.5187507,-0.0015498763,0.0065650083,-0.031287603
0.611884,6.5097213,7.3709054,0.017138477,0.03804136,-0.05758507,0.41698754,6.5262346,6.7317896,0.0031222124,0.014434096,-0.03786197
0.24941745,6.487696,6.5506873,-0.0705817,-0.03941629,-0.11671678,0.375095,6.5166,6.686514,-0.0153037645,9.71E-04,-0.057575673
0.492179,7.275833,7.2353997,0.04132872,0.029244903,-0.03559394,0.40436602,6.7064085,6.823735,-0.0011456432,0.008039851,-0.05208024
0.8369292,6.948799,7.7324142,-0.050056644,0.027290143,-0.15703385,0.51250684,6.767006,7.050905,-0.013373394,0.012852424,-0.07831864
-0.067082435,7.1072884,7.0639825,-0.0011874624,-0.08926285,0.11076924,0.36760953,6.8520765,7.0541744,-0.010326911,-0.012676395,-0.03104667
0.5711843,6.5944724,6.8236146,-0.04248192,-0.039660633,0.088289425,0.41850322,6.7876754,6.9965343,-0.018365663,-0.019422453,-0.0012126453
0.5410186,7.194913,6.8279243,-0.005830035,0.008231161,-0.026064454,0.44913208,6.889485,6.954382,-0.015231756,-0.01250905,-0.0074255974
0.43998766,6.785043,7.2353997,1.57E-02,-0.038683254,0.037221134,0.44684598,6.863374,7.0246363,-0.007505716,-0.0190526,0.0037360857
0.14982292,5.95046,7.158788,0.024468854,0.019959763,0.09171026,0.3725902,6.6351457,7.058174,4.88E-04,-0.009299509,0.02572963
0.54389155,6.505412,6.8992677,-0.023178596,0.05270211,-0.019467114,0.41541556,6.602712,7.0184474,-0.0054287044,0.0062008956,0.014430445
0.44190294,6.7654123,7.340261,0.022269737,0.019471074,-0.0619833,0.4220374,6.6433873,7.098901,0.0014959062,0.00951844,-0.004672991
0.50031894,6.695025,6.749877,-0.017558638,0.020448457,0.013275235,0.44160777,6.6562967,7.011645,-0.0032677297,0.012250944,-1.86E-04
0.2700067,6.3196306,7.7415123,0.042061754,9.01E-04,0.007410935,0.3987075,6.57213,7.194112,0.008064641,0.009413404,0.0017132827
0.51947176,6.3588934,7.9368706,0.0088307215,0.052946456,0.033311598,0.42889857,6.518821,7.3798018,0.008256161,0.020296667,0.009612861
0.110080875,5.8341064,7.610315,-0.025866397,-0.025244227,-0.050743386,0.34919414,6.347642,7.43743,-2.74E-04,0.008911444,-0.005476201
0.19962016,6.5154676,7.06494,0.028867077,-0.06922649,0.026958607,0.31180066,6.3895984,7.3443074,0.0070109107,-1.06E-02,0.0026325006
0.24319276,6.1022463,7.224866,-0.014382139,-0.020112963,0.03428898,0.29464868,6.3177605,7.314447,0.0016626483,-0.012995521,0.010546621
0.502713,6.4173098,7.448475,0.055256434,0.031199675,0.0020353263,0.34666476,6.3426476,7.347954,0.015061094,-0.0019467212,0.0084187975
0.5309634,6.605007,7.799928,0.044260874,0.0387744,-0.037304364,0.39273942,6.4082375,7.4609475,0.02236104,0.008233559,-0.0030119931
0.15078056,6.700292,7.1396356,-0.014382138,-0.055298768,-0.04878862,0.3322497,6.4812512,7.3806195,1.32E-02,-0.007649523,-0.014456149
0.821607,6.742429,8.09536,-0.05054533,0.030466635,0.0025240192,0.454589,6.5465455,7.5593047,-0.0027548987,1.88E-03,-0.010211107
0.28724417,6.2300906,8.006299,-0.047368832,-0.044791896,0.0030127065,0.4127528,6.467432,7.6710534,-0.0139083825,-0.009788337,-0.006905154
0.375347,6.088361,7.3407393,-0.004363956,-0.07851163,0.08731204,0.40340135,6.3726645,7.5884748,-0.011522276,-0.02696916,0.016649146
0.4744627,5.7862253,8.283056,-0.045414064,0.030466639,0.045773238,0.4211667,6.2260547,7.7621202,-0.019995224,-1.26E-02,0.02393017
0.55155265,5.6789694,8.809279,0.047681715,0.06785156,0.04406282,0.4537632,6.0892835,8.0239105,-0.003075989,0.0075052315,0.028963331
0.4289748,5.7163177,7.5164666,-0.02220121,0.04561608,-0.050254695,0.4475661,5.9960423,7.8970494,-0.007857295,0.017032944,0.009158824
0.5467645,6.193222,7.805674,-0.04981229,0.022891914,-0.037304364,0.47236568,6.045337,7.8742056,-0.018346043,0.018497687,-0.0024569733
0.3044817,5.190094,8.504751,0.00883072,-0.004963518,-2.26E-02,0.43039468,5.8315263,8.031842,-0.011551852,0.012632386,-0.0075036325
0.37055883,5.818785,8.879666,-0.052255757,-0.007406977,0.039908934,0.41543573,5.828341,8.243798,-0.021727828,0.007622545,0.0043495093
0.5103742,6.3268127,7.6371293,0.09215266,0.01067462,0.02842468,0.43917036,5.952959,8.092131,0.006742295,0.008385564,0.010368302
0.3289015,6.075432,8.053224,-0.016581252,-0.021334693,-0.04585647,0.41160315,5.9835773,8.082404,9.11E-04,9.55E-04,-0.0036878902
0.4433394,6.0907545,6.616764,-0.061296556,-0.07215864,0.013763926,0.41953722,6.0103717,7.715994,-0.014640583,-0.017323036,6.75E-04
0.4404665,5.508031,6.969655,-0.039061073,0.02851187,0.10197279,0.42476952,5.8847866,7.5294094,-0.020745706,-0.005864309,0.025999494
0.55969256,5.6727448,8.220331,0.017138485,-0.06067438,-0.111341156,0.45850027,5.831776,7.70214,-0.011274658,-0.019566827,-0.008335669
-0.16428287,5.6330028,8.417128,0.10583604,-0.0804664,0.1711227,0.30280447,5.7820826,7.880887,1.80E-02,-0.03479172,0.036528923
0.7770768,5.67083,8.247146,-0.0060743815,0.04928127,0.14228986,0.42137253,5.7542696,7.9724517,1.20E-02,-0.013773471,0.062969156
0.4275384,5.7081776,8.137495,0.08531098,0.09986086,0.08266947,0.422914,5.7427464,8.013713,0.030315496,0.014635112,0.067894235
0.43998772,6.082135,7.0793037,-0.020002097,0.065163754,0.049682774,0.42718244,5.827594,7.7801104,0.017736098,0.027267274,0.06334137
0.7516993,5.6157656,8.358231,-0.009739569,0.12478416,0.04723931,0.5083116,5.7746367,7.9246407,0.010867181,0.051646493,0.059315857
0.47494155,5.344275,7.3522315,-2.02E-02,0.11891985,-0.07908751,0.49996912,5.6670465,7.7815385,0.003088776,0.06846483,0.024715014
0.19531079,5.4769073,7.759707,0.014939365,-0.06311784,-0.105721205,0.42380452,5.6195116,7.7760806,0.006051423,0.03556916,-0.007894039
0.024372127,6.167365,6.8820305,0.014695021,-0.042348437,0.12860648,0.32394642,5.756475,7.552568,0.008212322,0.016089762,0.026231091
0.71052086,5.169984,8.65079,-2.10E-04,0.21299303,-0.068091944,0.42059004,5.6098523,7.8271236,0.006106722,0.065315574,0.0026503317
0.9307779,6.148692,7.560997,0.0041881464,0.25404313,-0.34835666,0.548137,5.744562,7.760592,0.005627078,0.112497464,-0.08510141
1.2013111,6.0763903,7.8358397,1.00E-01,-0.08926285,-1.492873,0.71143055,5.8275194,7.7794037,0.029213242,0.062057383,-0.43704432
-2.2844968,6.8664427,8.718305,0.5075407,-0.66420877,-0.9484702,-0.037551284,6.08725,8.014129,0.1487951,-0.11950915,-0.56490076
-0.39172223,7.108246,5.435037,0.10217085,-0.39909345,0.71063834,-0.12609401,6.3424993,7.3693557,0.13713904,-0.18940523,-0.24601597
0.54437035,7.07856,6.816432,-0.011938682,-0.103679255,0.26372978,0.041522086,6.5265145,7.231125,0.09986961,-0.16797374,-0.11857954
0.5999135,7.7852974,6.8154745,0.062342465,-0.009850437,0.32163975,0.18111993,6.8412104,7.1272125,0.09048782,-0.12844291,-0.008524716
0.7718097,7.069462,5.4106174,-0.032219388,0.08593316,0.09781892,0.3287924,6.8982735,6.698064,0.05981102,-0.0748489,0.018061193
0.78904736,6.9847107,7.853078,0.031554885,0.14237706,0.11638921,0.44385612,6.919883,6.9868174,5.27E-02,-0.020542406,0.042643197
0.58842176,5.509946,7.398198,-2.76E-02,0.08788793,0.09293201,0.47999752,6.5673985,7.0896626,3.27E-02,0.006565178,0.0552154
0.6880163,6.732852,8.027368,0.0012559956,0.14384313,0.08095905,0.5320022,6.608762,7.324089,0.024813525,0.040884666,0.06165131
0.66024476,5.343795,8.517679,0.039373953,0.08862096,0.006189202,0.56406283,6.29252,7.6224866,0.028453633,0.052818738,0.047785785
0.16562398,6.636609,6.616764,0.01176287,-0.085597664,-0.16534162,0.1883648,2.9754293,2.9777899,0.0029407174,-0.021399416,-0.041335404
-0.20210962,6.7821703,7.72619,-0.02220121,-0.14130853,-0.034372214,0.090746194,3.9271145,4.16489,-0.0033447647,-0.051376693,-0.039594606
-0.12166791,7.0603647,6.8030252,-0.0033865757,0.085688815,0.41742337,0.03764267,4.7104273,4.824424,-0.0033552174,-0.017110318,0.074659884
0.7473899,6.832446,7.298604,0.01664979,0.08837662,-0.09619172,0.21507949,5.240932,5.442969,0.0016460347,0.009261416,0.031946983
1.0930979,7.319406,6.3567653,-0.011694336,-0.02866507,-0.18733275,0.43458408,5.7605505,5.671418,-0.001689058,-2.20E-04,-0.02287295
0.37391058,7.360106,6.818826,0.0046768375,0.0808019,0.241983,0.4194157,6.1604395,5.95827,-9.76E-05,0.020035319,0.043341037
0.58985823,6.712741,7.0749946,-0.009495222,0.21103826,0.14571068,0.46202636,6.298515,6.237451,-0.0024469937,0.06778605,0.06893344
0.84315383,6.6662955,6.9102807,0.020314973,-0.022067731,-0.24548706,0.5573082,6.39046,6.4056587,0.003243498,0.045322604,-0.009671688
0.36864352,7.295465,6.229399,0.015672404,-0.051877927,0.11028056,0.510142,6.616711,6.3615937,0.0063507245,0.021022473,0.020316374
0.5256964,6.9861474,7.0122695,0.0010116501,0.123806775,-0.06882498,0.51403064,6.70907,6.5242624,0.005015956,0.04671855,-0.001968965
0.11774198,6.845374,6.8633566,-0.0077848006,-0.08804113,0.07924863,0.41495848,6.743146,6.609036,0.0018157666,0.013028629,0.018335434
0.043046128,6.842501,6.6067095,0.0066316063,0.020448456,0.17894176,0.3219804,6.767985,6.608454,0.0030197264,0.014883585,0.058487013
0.4452547,6.8099413,7.075952,-0.0016761548,0.043905657,-0.059784185,0.35279897,6.778474,6.7253284,0.0018457561,0.022139102,0.028919213
0.57980305,6.842023,8.062322,0.021292355,-0.01913558,-0.022399262,0.40954998,6.794361,7.059577,0.0067074057,0.011820432,0.016089594
0.3087911,6.2952104,7.4422503,0.013961983,0.002122514,-0.008227202,0.38436025,6.6695733,7.1552453,0.00852105,0.009395952,0.010010395
0.6482743,6.8166456,6.8604836,-0.0063187247,0.0011451305,-0.01848973,0.45033878,6.7063413,7.081555,0.0048111062,0.007333247,0.002885364
0.23361638,6.4168305,7.6060057,0.03546442,-0.023778152,0.0015466325,0.3961582,6.6339636,7.2126675,0.012474434,-4.45E-04,0.0025506811
0.37343174,6.3904953,7.4901323,0.033754,0.03975178,0.028180331,0.39047658,6.5730963,7.282034,0.017794326,0.009604493,0.008958094
0.28197718,6.819997,7.0745153,-0.009495225,0.019959766,-0.053675536,0.36335173,6.6348214,7.230154,0.010971938,0.012193311,-0.0067003146
0.2388834,6.028029,7.173632,0.0017446866,0.010674622,0.035755057,0.33223465,6.4831233,7.2160234,0.008665126,0.011813639,0.0039135283
0.4907426,6.843938,7.114737,-0.057387017,0.023624951,0.026714262,0.37186164,6.573327,7.190702,-0.007847909,0.014766467,0.009613711
0.5678325,6.424971,7.716614,0.038640916,0.032421403,-0.050743386,0.42085436,6.536238,7.32218,0.0037742974,0.019180201,-0.005475563
0.20201425,6.6873636,7.9904985,-0.021956863,-0.014737355,0.11785529,0.36614433,6.5740194,7.4892597,-0.002658493,0.010700813,0.02535715
0.33704147,6.897087,6.543027,0.02764535,0.024113644,0.06580961,0.3588686,6.654786,7.2527018,0.004917468,0.014054021,0.035470262
0.4907426,6.474768,7.3910165,0.014695021,0.0043216255,-0.042435627,0.3918371,6.6097817,7.2872806,0.0073618563,0.011620922,0.015993789
0.20728128,6.383313,6.4961023,0.0066316044,-0.026465954,0.018650845,0.34569815,6.5531645,7.089486,0.0071792933,0.002099203,0.016658053
0.46249217,6.604528,8.233259,0.027156658,0.03071098,0.055791415,0.37489665,6.566005,7.375429,0.012173634,0.009252148,0.026441393
0.4864332,6.61985,6.8566537,0.02520189,0.044883043,-0.07859882,0.40278077,6.5794663,7.245735,0.015430698,0.018159872,1.81E-04
0.3624189,6.373258,7.7027273,-0.128736,-0.021823384,-0.054897264,0.3926903,6.527914,7.3599834,-0.020610979,0.0081640575,-0.013588311
0.5711843,5.8068137,7.576319,-0.0038752682,0.037063975,-0.043901697,0.4373138,6.347639,7.4140673,-0.016427051,0.015389036,-0.021166658
0.64635897,6.1419883,7.5466323,-0.023178594,0.015072849,-0.041946936,0.4895751,6.2962265,7.4472084,-0.018114937,0.015309989,-0.026361728
0.12731835,5.798674,8.327587,0.045238253,-0.012538242,0.04357412,0.3990109,6.1718383,7.667303,-0.0022766404,0.008347931,-0.008877765
0.59895587,6.3598514,7.7592287,-0.027576819,0.01531719,-0.04585647,0.44899714,6.2188416,7.6902847,-0.008601685,0.010090246,-0.018122442
0.40263978,5.9854136,7.441771,0.0454826,0.013606768,-0.024842724,0.4374078,6.1604843,7.628156,0.0049193855,0.010969376,-0.019802513
0.42035604,6.3584146,7.922984,-0.0068074157,9.01E-04,-0.08910569,0.43314487,6.2099667,7.7018633,0.0019876852,0.008452228,-0.037128307
0.5146836,5.753186,7.8334455,0.0046768393,-0.020357307,-0.05318685,0.45352954,6.095772,7.734759,0.0026599737,0.0012498442,-0.04114294
0.24750212,5.5678835,7.682138,0.04157307,-0.03135287,-0.00676113,0.4020227,5.9637995,7.7216034,0.012388248,-0.006900834,-0.03254749
0.4160467,6.4556146,7.47864,-0.010961296,-0.019624269,0.04088632,0.4055287,6.0867534,7.6608624,0.006550862,-0.010081693,-0.014189037
0.42562303,5.6674776,7.8391914,0.0093194125,-0.006185247,-0.040725205,0.41055226,5.9819345,7.705445,0.0072429995,-0.009107581,-0.020823078
0.37869874,6.039521,8.072376,0.0010116529,0.028023176,0.045284547,0.40258887,5.996331,7.797178,0.0056851627,1.75E-04,-0.0042961724
0.7052538,6.219557,8.3453045,-4.54E-04,0.036086597,-0.06369372,0.4782551,6.0521374,7.9342093,0.0041502654,0.0091529805,-0.01914556
0.6104475,6.6916733,8.098233,0.030333169,-0.06458388,-0.043168664,0.5113032,6.2120214,7.9752154,0.010695991,-0.009281235,-0.025151335
0.5855488,5.2805915,7.130538,0.019826286,-8.10E-04,-0.068091944,0.5298646,5.979164,7.764046,0.012978565,-0.007163336,-0.03588649
0.16131458,5.6004434,8.198785,0.044016525,-0.033796333,0.10197279,0.4377271,5.884484,7.8727307,0.020738054,-0.013821585,-0.0014216676
0.6061381,6.1194835,7.485822,-0.0466358,0.005054663,0.020849958,0.47982985,5.9432335,7.776004,0.0038945898,-0.009102523,0.004146239
0.4826026,5.564531,8.862429,0.040106997,-0.004719172,-0.06711456,0.48052305,5.848558,8.04761,0.012947692,-0.008006685,-0.013668962
0.55825615,6.1630564,7.1947007,-0.0583644,-0.06043004,0.06727567,0.4999563,5.9271827,7.834383,-0.0048803315,-0.021112524,0.006567197
0.48068732,5.619117,7.8435006,0.021292355,0.020448452,0.13495949,0.49513906,5.8501663,7.8366623,0.0016628401,-0.01072228,0.038665272
0.5601715,5.786704,8.122652,0.0022333823,0.038285702,0.088533774,0.5113972,5.834301,7.9081597,0.0018054757,0.001529716,0.051132396
0.42227134,5.4922295,8.23278,0.025690582,0.04610477,0.12445263,0.48911572,5.748783,7.989315,0.007776752,0.0126734795,0.069462456
0.6310367,5.644973,7.481992,-0.006074383,0.07689235,0.08999985,0.524596,5.722831,7.862484,0.004313968,0.028728198,0.07459681
0.90204877,6.003609,9.319701,0.053301666,0.09106442,0.082180776,0.6189592,5.7930255,8.2267885,0.016560894,0.044312254,0.0764928
0.87906533,6.2305694,7.6380873,0.008830718,0.064919405,0.062633105,0.6839857,5.9024115,8.079613,0.01462835,0.04946404,0.07302788
0.6592871,5.5860777,7.0228033,-0.058120057,0.05587861,0.09684154,0.677811,5.823328,7.8154106,-0.0035587521,0.05106768,0.078981295
0.77851325,5.335655,8.7001095,0.09801696,0.20004268,0.2810783,0.7029866,5.70141,8.036585,0.021835178,0.088311434,0.12950554
1.0691569,5.4390807,7.1243134,0.12929323,0.46222582,-0.22031944,0.7945292,5.6358275,7.808517,0.048699692,0.18179002,0.042049304
1.7988781,6.5336623,7.70225,-0.026110746,0.35593534,-1.0941004,1.0456164,5.860286,7.78195,0.029997082,0.22532636,-0.24198811
-0.9974291,6.478598,8.396059,0.3936755,-0.37685794,-0.65525514,0.534855,6.014864,7.9354773,0.12091669,0.074780285,-0.34530485
-1.9502804,7.2064047,7.372821,0.18769193,-0.41790804,-0.017268,-0.08642888,6.312749,7.794813,0.1376105,-0.048391797,-0.26329565
-0.26148325,6.6203284,6.454444,0.15665998,-0.2607937,-0.127468,-0.13019247,6.3896437,7.4597206,0.14237286,-0.10149227,-0.22933874
-0.6167675,8.158777,7.1228776,0.015428058,-0.2774092,-0.192464,-0.25183624,6.8319273,7.3755097,0.11063666,-0.1454715,-0.22012004
-0.37879413,7.1901245,6.393635,0.016161095,-0.32798877,0.14864285,-0.2835757,6.9214764,7.130041,0.08701777,-0.19110082,-0.12792931
0.28389248,7.577011,6.744609,-0.035884574,-0.06751606,0.15695062,-0.14170867,7.08536,7.033683,0.056292184,-0.16020463,-0.056709334
0.63774025,6.325376,6.3428793,-0.16929743,-0.102213174,0.06752002,0.05315356,6.895364,6.860982,-1.05E-04,-0.14570677,-0.025651995
0.33895674,6.030423,6.8307967,-0.07791207,-0.041126706,0.1669688,0.12460436,6.6791286,6.8534355,-0.01955693,-0.119561754,0.0225032
0.5247388,4.9310527,8.71974,-0.022934245,-0.009361744,0.13569252,0.22463797,6.24211,7.3200116,-0.020401258,-0.09201175,0.050800532
0.6003923,5.4907937,8.742723,0.10412562,0.05221342,0.17625394,0.31857654,6.0542808,7.6756897,0.01073046,-0.05595546,0.082163885
0.7828226,5.386889,8.381215,0.053057328,0.15801519,0.10881447,0.43463805,5.887433,7.852071,0.021312177,-0.0024627969,0.08882653
1.0164865,5.058419,7.583022,-0.009495223,0.14042228,-0.09081611,0.5801002,5.6801796,7.7848086,0.013610328,0.033258475,0.043915868
0.57453597,5.008143,9.049647,-0.0041196127,0.009452889,-0.10865336,0.5787091,5.5121703,8.101018,0.009177843,0.027307078,0.005773559
0.33847785,4.427335,8.263905,0.070405886,-0.037950214,-0.060517218,0.5186513,5.2409616,8.14174,0.024484854,0.010992754,-0.010799136
0.58746415,5.1312,9.094656,0.03179923,-0.026954647,0.036732443,0.5358545,5.213521,8.379969,0.026313448,0.0015059039,0.0010837587
0.5065435,5.4079576,8.072376,-0.038328037,0.007986816,0.064587876,0.5285268,5.2621303,8.30307,0.010153078,0.0031261318,0.016959786
0.43855125,5.336613,8.337164,0.03839657,0.071272396,0.1408238,0.5060329,5.280751,8.311594,0.017213952,0.020162698,0.04792579
-0.657946,6.0610676,7.45039,-0.016336909,-0.06922648,-0.43705428,-0.088632435,2.6779325,3.2574806,-0.004084227,-0.01730662,-0.10926357
-0.77142626,6.867879,7.244498,0.0039438,0.03608659,-0.0065167807,-0.2593309,3.725419,4.254235,-0.0020772205,-0.0039583184,-0.08357687
-1.2823269,7.132188,6.2241325,0.061853774,-0.1449737,-0.35837486,-0.5150799,4.5771112,4.7467093,0.013905529,-0.039212164,-0.15227637
-1.935916,7.567435,6.5186067,0.08506663,-0.08706374,0.19726768,-0.8702889,5.3246922,5.189684,0.031695805,-0.051175058,-0.064890355
-0.352459,7.3050413,6.7278504,-0.0072961096,0.16363515,0.9505861,-0.74083143,5.8197794,5.5742254,0.021947827,0.002527494,0.18897876
-0.67662,7.6737328,6.323726,0.030088808,-0.22194266,-0.41799524,-0.7247786,6.283268,5.7616005,0.023983072,-0.053590044,0.03723526
0.054058958,7.373034,6.5272255,-0.03221939,0.06418637,0.63122606,-0.53006923,6.5557094,5.9530067,0.009932457,-0.02414594,0.18573296
0.2422351,7.405114,5.7232866,-0.0046083042,-0.021090347,0.20924065,-0.33699316,6.7680607,5.8955765,0.006297266,-0.023382042,0.19160989
0.66024476,7.1058526,7.3062644,0.037419185,0.059788138,0.3468074,-0.08768368,6.8525085,6.2482486,0.014077745,-0.0025894977,0.23040926
1.3463933,7.4711924,6.974921,0.039862648,0.027778838,-0.40162408,0.27083558,7.0071793,6.429917,0.020523971,0.005002586,0.07240093
0.8330986,7.046479,6.596175,-0.01926906,0.10108259,0.20313199,0.41140133,7.017004,6.4714813,0.010575714,0.029022587,0.10508369
0.8714043,7.3265886,6.034999,0.003943802,0.1277163,-0.0033402839,0.52640206,7.0944004,6.362361,0.008917736,0.053696014,0.077977695
0.12205134,7.371118,6.332345,0.001500342,-0.02280077,-0.07395623,0.42531437,7.16358,6.354857,0.0070633874,0.03457182,0.039994214
-0.0019629716,6.7898307,7.0251975,0.00638726,0.027045794,0.118588306,0.31849504,7.0701427,6.522442,0.0068943556,0.032690313,0.059642736
0.6899315,6.8688364,6.928476,0.05965466,0.026557095,-0.04756689,0.41135415,7.0198164,6.6239505,0.020084431,0.03115701,0.03284033
0.013838077,6.446517,6.8647933,-0.04028281,-0.10685576,0.08999985,0.31197512,6.8764915,6.684161,0.004992621,-0.0033461824,0.04713021
0.6396555,6.658156,8.234697,0.002966418,0.014584152,0.27374795,0.3938952,6.8219075,7.0717955,0.00448607,0.0011364012,0.10378464
1.0509617,6.880807,7.695546,-0.038816728,0.062475942,-0.0123810815,0.55816185,6.8366323,7.227733,-0.006339629,0.016471287,0.07474321
0.3217192,5.8053775,7.2186403,-0.057387017,0.11354424,0.042596743,0.49905118,6.5788183,7.22546,-0.019101476,0.040739525,0.0667066
0.6176298,6.261693,8.173407,-0.12629256,0.0016338229,-0.3388272,0.5286958,6.499537,7.4624467,-0.045899246,0.0309631,-0.03467685
0.54389155,7.2303457,8.177717,0.06747374,-0.04772405,0.106371015,0.5324948,6.682239,7.6412644,-0.017556,0.011291314,5.85E-04
0.55442566,6.740991,6.4530077,0.015916754,0.0084755095,-0.0439017,0.5379775,6.696927,7.3442,-0.009187812,0.010587363,-0.010536588
0.46728045,6.8022804,7.2693954,0.09117529,-0.018646888,0.10246149,0.52030325,6.7232656,7.325499,0.015902963,0.0032787998,0.017712932
0.66599053,7.5224257,6.780042,0.070405886,0.013362424,-0.014580196,0.5567251,6.9230556,7.1891346,0.029528692,0.005799706,0.009639651
0.46871686,6.887511,7.4681063,0.03815222,-0.020357309,0.08755639,0.53472304,6.9141693,7.2588778,0.031684574,-7.40E-04,0.029118836
0.656893,6.6141043,7.3383455,-0.017314289,0.066141136,0.038931556,0.56526554,6.8391533,7.2787447,0.019434858,0.015980624,0.031572014
0.81394595,6.537014,8.186336,0.0044324975,0.020692801,-0.0529425,0.6274356,6.7636185,7.5056424,0.015684268,0.017158668,0.010443386
0.47350508,6.687364,7.2310896,-0.033441123,-0.0054522096,-0.056607686,0.588953,6.744555,7.437004,0.0034029204,0.011505948,-0.0063193813
0.19004378,6.073517,7.211937,-0.011694338,-0.01669212,0.08266947,0.48922572,6.5767956,7.3807373,-3.71E-04,0.004456431,0.01592783
0.48595437,6.36033,7.511678,0.01176287,0.07567063,-0.06638153,0.48840788,6.5226793,7.4134727,0.0026621716,0.02225998,-0.0046495087
0.4849967,6.348838,6.722584,0.017627172,-0.041371055,0.0780269,0.4875551,6.479219,7.2407503,0.006403422,0.0063522216,0.016019594
0.6305579,6.387623,8.357274,-0.010228259,0.005054662,0.052614935,0.5233058,6.45632,7.5198812,0.0022455016,0.0060278317,0.02516843
0.5620867,6.309575,7.6893206,-0.028798547,-0.01620343,-0.16680768,0.533001,6.419634,7.562241,-0.00551551,4.70E-04,-0.022825599
0.11247498,6.3957624,6.6210737,0.02837839,-0.1364216,0.012786544,0.4278695,6.413666,7.326949,0.0029579643,-0.03375289,-0.013922563
0.69519866,6.397199,7.22295,0.02813404,0.09130876,-0.056363344,0.4947018,6.409549,7.300949,0.009251984,-0.002487477,-0.024532758
0.05884717,5.2307944,8.323756,-0.030508969,-0.12713647,0.15646192,0.38573813,6.1148605,7.556651,-6.88E-04,-0.033649724,0.020715915
0.7981449,6.439814,7.4039445,0.024468854,0.053190805,0.1488872,0.4888398,6.196099,7.5184746,0.0056010224,-0.011939593,0.05275874
0.40742788,5.727809,7.671125,0.062342465,0.004321629,-0.080553584,0.46848682,6.079026,7.5566373,0.019786384,-0.007874288,0.01943066
0.26426083,6.045266,7.6634645,-0.0041196113,-0.014493008,0.049682774,0.4174303,6.070586,7.583344,0.013809885,-0.009528968,0.026993688
0.36672828,5.9423203,7.0706854,0.019337587,0.02264757,0.0892668,0.40475482,6.03852,7.455179,0.01519181,-0.0014848327,0.042561967
0.2776678,5.5372386,8.582798,0.04792606,0.019959763,0.023537762,0.37298307,5.9131994,7.737084,0.023375373,0.0038763164,0.037805915
0.54053986,6.3517113,7.74247,-9.43E-04,0.019959763,0.07460605,0.41487226,6.022827,7.7384305,0.017295752,0.007897178,0.04700595
0.46105576,5.8613997,7.605048,0.026667967,0.01605023,0.08804508,0.42641813,5.9824705,7.705085,0.019638807,0.0099354405,0.057265736
0.4213137,5.977274,8.611528,0.0051655304,0.0776254,0.119077004,0.42514202,5.9811716,7.931696,0.016020488,0.026857931,0.07271855
0.41891956,5.4127455,8.304125,0.023980163,0.047326505,-0.056607686,0.4235864,5.839065,8.024803,0.018010408,0.031975076,0.040386993
0.4423818,6.4929633,8.4008465,0.0032107662,0.051969074,0.043574125,0.42828524,6.0025396,8.118814,0.014310498,0.036973573,0.041183777
0.54963744,5.8388953,8.31418,0.024957549,0.051480383,-0.039747823,0.4586233,5.9616284,8.167656,0.01697226,0.040600277,0.020950876
0.31357926,5.535323,8.331896,-0.0092508765,-0.011805202,0.0100987395,0.42236227,5.855052,8.208715,0.010416476,0.027498908,0.018237842
0.21925175,5.9586,7.4187875,0.014206328,0.038774393,0.1051493,0.37158465,5.880939,8.011233,0.011363939,0.03031778,0.039965704
0.53670925,5.9317865,7.844458,-0.045169726,0.14139968,-0.11231855,0.41286582,5.893651,7.9695396,-0.0027694767,0.058088254,0.001894638
0.67748225,5.6976438,7.7372026,0.015672404,0.13138148,-0.19393007,0.47901994,5.8446493,7.911455,0.0018409938,0.07641156,-0.04706154
0.665033,5.8647513,7.8779755,-0.026599433,0.1426214,-0.35935223,0.5255232,5.8496747,7.903085,-0.005269113,0.09296402,-0.12513421
0.409822,6.569574,7.7132616,0.081645794,0.08226797,-0.73369014,0.4965979,6.0296497,7.8556294,0.016459614,0.09029001,-0.27727318
-1.645751,7.149904,7.9143653,0.22947505,-0.5095378,-0.25184003,-0.038989305,6.3097134,7.8703136,0.06971347,-0.059666947,-0.27091488
-0.63927203,7.1666627,6.443432,0.07162761,-0.4892571,0.52640164,-0.18905999,6.5239506,7.513593,0.07019201,-0.16706449,-0.071585745
0.04113084,7.044084,6.2945194,-0.034174163,-0.24149036,0.60043836,-0.13151228,6.653984,7.2088246,0.044100467,-0.18567096,0.09642029
1.2520659,8.133879,7.548069,0.025690585,0.098394796,0.13324906,0.21438226,7.0239577,7.293636,0.039497998,-0.11465452,0.10562748
1.0624534,6.704122,6.319896,-0.014382144,0.13749014,0.062388763,0.42640004,6.943999,7.050201,0.026027963,-0.051618353,0.0948178
0.3638553,4.9042387,8.7537365,-0.082065955,0.096440025,-0.062471986,0.41076386,6.4340587,7.4760847,-9.96E-04,-0.014603756,0.055495355
0.5175565,5.4941454,8.806886,0.030088808,0.10108259,0.131783,0.43746203,6.1990805,7.808785,0.0067755645,0.014317831,0.074567266
0.6094899,4.9296165,8.175323,-0.0024091918,0.07811408,-0.15190259,0.480469,5.8817143,7.900419,0.0044793757,0.030266892,0.017949805
0.4792509,4.2789006,8.300295,-0.14168637,-0.09952538,0.16721314,0.48016447,5.481011,8.000388,-0.03206206,-0.002181176,0.05526564
0.76319104,5.638748,8.563646,0.17400855,0.11794247,-0.13186623,0.5509211,5.5204453,8.141203,0.01945559,0.027849734,0.008482672
0.9417907,4.8941836,9.003202,-0.12262737,0.092041805,0.14155681,0.6486385,5.36388,8.356703,-0.01606515,0.04389775,0.041751206
0.28580773,6.0280294,7.6136675,0.013717636,0.029489253,0.26568455,0.14901179,2.6779327,3.2515254,0.003429409,0.007372313,0.066421136
0.21494241,5.8408103,7.117131,0.040840026,0.051724724,0.18529473,0.16549444,3.4686522,4.217927,0.012782063,0.018460415,0.096139535
1.0059526,6.254032,7.2564683,0.017138477,0.085444465,-0.21396644,0.37560898,4.164997,4.9775624,0.013871167,0.03520643,0.01861304
0.34422368,6.6375666,7.6534095,0.0188489,-0.030864183,0.025492534,0.36776266,4.783139,5.6465244,0.0151156,0.018688776,0.020332914
0.21398477,6.6021338,6.248073,-0.07107039,-0.024755532,0.03404464,0.3293182,5.237888,5.7969117,-0.006430898,0.007827699,0.023760844
0.45961922,6.2784514,7.978527,0.0694285,-0.0027644052,-0.011159353,0.36189345,5.4980288,6.3423157,0.012533952,0.005179673,0.015030795
0.364813,7.4400687,6.533929,-0.013404757,0.010430273,-0.026797492,0.36262333,5.9835386,6.3902187,0.0060492745,0.006492323,0.0045737233
0.20632365,7.087657,7.0601516,0.012007215,-0.028420724,0.008143972,0.3235484,6.259568,6.557702,0.0075387596,-0.0022359393,0.005466285
0.50319195,6.7950983,6.662732,0.03864092,-0.031841565,0.03135683,0.36845928,6.3934507,6.5839596,0.0153143,-0.009637346,0.011938921
0.53431517,7.1034575,6.756101,-0.008273496,0.0018781619,-0.0348609,0.40992326,6.5709524,6.626995,0.00941735,-0.0067584687,2.39E-04
0.46153456,6.3627243,8.139411,0.014695019,-0.008628706,0.048949737,0.42282608,6.518895,7.0050993,0.010736767,-0.007226028,0.012416658
0.21973062,6.494399,5.798462,-0.03783935,0.041462194,0.09219895,0.37205222,6.512771,6.7034397,-0.0014072619,0.0049460274,0.03236223
0.5386245,6.723754,6.8011103,0.03228792,0.06614114,-0.11744981,0.4136953,6.565517,6.7278576,0.007016534,0.020244807,-0.0050907806
0.44764876,6.0452666,6.262438,0.009563756,-0.0628735,-0.02191057,0.42218366,6.4354544,6.6115026,0.0076533398,-5.35E-04,-0.009295728
0.1541323,6.289943,8.362062,-0.031242006,-0.033796333,0.069474794,0.35517082,6.3990765,7.049143,-0.0020704968,-0.00885016,0.0103969015
0.4083856,6.134806,7.44608,-0.03735066,0.03926309,-0.11744981,0.3684745,6.333009,7.1483774,-0.010890537,0.0031781523,-0.021564778
0.57309955,7.154213,7.570094,-0.010961297,0.023136262,-0.053186845,0.41963077,6.53831,7.2538066,-0.010908227,0.008167679,-0.029470295
0.42849603,6.885595,7.909578,-0.09135109,-0.14326328,-0.060272876,0.42184708,6.625131,7.4177494,-0.031018943,-0.02969006,-0.03717094
-0.18104157,5.8676243,7.285197,0.016894136,-0.06727172,0.13813597,0.2711249,6.4357543,7.384611,-0.019040674,-0.039085474,0.00665579
0.8177765,7.2748756,7.4034653,-0.036861964,0.019471074,-0.159966,0.4077878,6.6455345,7.3893247,-0.023495996,-0.024446337,-0.03499966
0.11917843,6.987105,7.034774,-0.060563512,-0.060185682,0.0509045,0.33563545,6.730927,7.300687,-0.032762878,-0.03338117,-0.01352362
0.4213137,6.118526,8.742723,0.111456,-0.06336219,0.042352397,0.357055,6.5778265,7.6611958,0.0032918416,-0.040876426,4.45E-04
0.46201333,5.6914186,8.419043,0.024957545,0.047815192,-0.03192875,0.38329458,6.3562245,7.8506575,0.0087082675,-0.01870352,-0.0076481495
0.71770316,6.379962,7.1683645,-4.54E-04,-0.0953715,0.040153284,0.4668967,6.362159,7.680084,0.0064175944,-0.037870515,0.0043022092
0.62576973,5.6325235,7.775508,0.04670433,0.019959763,0.006189204,0.506615,6.17975,7.7039404,0.016489279,-0.023412947,0.0047739577
0.5491586,6.0031304,7.241145,-0.06545043,6.56E-04,0.04455151,0.5172509,6.1355953,7.5882416,-0.0039956495,-0.0173956,0.014718346
0.6741305,5.908803,8.933773,0.06893981,0.023624951,0.12396393,0.5564708,6.0788975,7.9246244,0.014238216,-0.007140463,0.042029742
0.8086788,5.938011,6.3538923,-0.0028978852,0.047815196,0.053347968,0.6195228,6.043676,7.5319414,0.009954191,0.006598452,0.044859298
0.6339097,5.1944036,7.3412185,-0.061052207,0.08373404,0.023537762,0.62311953,5.831358,7.4842606,-0.007797408,0.02588235,0.039528914
0.54245514,6.1688023,6.2557344,-0.03857238,0.10963469,-0.041946936,0.60295343,5.915719,7.177129,-0.01549115,0.046820436,0.01915995
0.9374813,6.1783786,9.176056,0.007853334,0.090575725,-0.081286624,0.6865854,5.981384,7.676861,-0.0096550295,0.05775926,-0.0059516933
0.27766776,6.1185255,7.597865,-0.03686196,0.0055433568,0.024270799,0.584356,6.0156693,7.657112,-0.016456762,0.044705283,0.0016039298
0.4984037,5.568841,8.331418,-0.0021648486,0.018004995,0.044062823,0.56286794,5.903962,7.8256884,-0.012883784,0.03803021,0.012218652
0.72536427,6.0783052,7.5557303,-0.026843783,0.012140693,-0.10107864,0.603492,5.947548,7.7581987,-0.016373783,0.031557832,-0.01610567
0.60518044,6.097458,6.5842047,-0.007540457,-0.022800768,-0.006272435,0.60391414,5.9850254,7.4647,-0.014165452,0.017968182,-0.013647362
0.4064703,5.872412,8.747992,0.0041881464,-0.017180806,0.008143972,0.55455315,5.956872,7.785523,-0.009577053,0.009180935,-0.008199528
0.4146102,5.861879,8.120258,-0.07742338,-0.038683247,0.19677898,0.51956743,5.9331236,7.869207,-0.026538635,-0.0027851108,0.0430451
0.33081675,6.1558743,6.849471,0.031066194,0.07273848,0.24540383,0.47237974,5.9888115,7.614273,-0.012137428,0.016095787,0.093634784
1.0782545,6.597346,6.4855676,-0.026599437,0.12869368,-0.12722366,0.62384844,6.140945,7.3320966,-0.01575293,0.04424526,0.038420174
0.5917736,5.718711,8.01013,-0.012183027,0.1313815,-0.12942275,0.6158297,6.0353866,7.501605,-0.014860455,0.066029325,-0.0035405569
0.8019754,6.3263335,6.822178,-0.024155974,0.23009723,-0.5262405,0.66236615,6.1081233,7.331748,-0.017184336,0.107046306,-0.13421555
0.34709662,7.034987,6.8284025,0.14419836,-0.32016972,-0.8170121,0.5835488,6.339839,7.2059116,0.023161337,2.42E-04,-0.30491468
-1.6012208,6.836277,7.422139,0.20015354,-0.44820693,-0.02801922,0.037356377,6.4639482,7.2599688,0.06740939,-0.111870006,-0.23569082
-0.93614024,7.7264023,6.168589,0.0107854875,-0.2796083,0.4443014,-0.20601778,6.779562,6.987124,0.053253412,-0.15380459,-0.06569277
0.14311944,6.892778,6.7819567,0.0012559956,-0.07240299,0.29256257,-0.11873347,6.807866,6.935832,0.040254056,-0.13345419,0.023871064
0.9925457,7.4711914,6.089105,-0.017558634,4.12E-04,-0.14188442,0.15908635,6.9736977,6.72415,0.025800884,-0.09998762,-0.017567806
-0.047450848,6.2980833,8.331897,-0.014870824,-0.17014134,-0.015801925,0.10745205,6.8047943,7.1260867,0.015632957,-0.11752605,-0.017126337
-2.148512,6.8228693,5.944501,0.16227993,-0.2769205,0.3052686,-0.8160793,2.9306893,2.8297448,0.040569983,-0.069230124,0.07631715
-2.1691012,6.4062967,7.5159883,0.076758884,-0.05309966,1.0888858,-1.1543348,3.799591,4.0013056,0.04961721,-0.065197505,0.3294593
1.1218269,6.7304573,6.511424,0.009563756,0.22667637,0.6791178,-0.58529437,4.5323076,4.628835,0.039603844,0.007770963,0.41687393
1.6154902,6.9387445,6.6052732,0.040351335,0.06907328,-0.17560413,-0.035098195,5.133917,5.122945,0.039790716,0.023096543,0.26875442
1.1716242,7.0737715,6.26962,0.026179276,0.17658547,0.29769385,0.2665824,5.6188803,5.4096136,0.036387857,0.061468773,0.2759893
1.4656196,7.17576,7.0654182,0.014695021,0.1335806,-0.24084449,0.5663417,6.0081,5.8235645,0.030964648,0.07949673,0.14678085
1.0442582,6.8817644,6.2150345,0.024713203,-0.008628704,-0.31292653,0.6858208,6.2265162,5.921432,0.029401787,0.057465367,0.031854004
0.109123215,6.9329987,6.8911276,-0.016336907,0.089109644,0.34705174,0.5416464,6.4031367,6.163856,0.017967112,0.06537644,0.11065344
1.0696356,6.6461854,7.3412185,-0.007051762,0.20590699,0.072406955,0.6736437,6.4638987,6.4581966,0.011712394,0.10050908,0.10109182
0.38348693,6.647143,7.788915,-0.033929814,-0.083887234,-0.044146046,0.6011045,6.50971,6.7908764,3.02E-04,0.05441,0.06478235
1.0116985,7.04169,6.8580885,0.040595688,0.055145573,-0.316103,0.703753,6.642705,6.807679,0.010375303,0.05459389,-0.03043899
0.7871319,6.141988,6.9021416,-0.030753318,-0.015226045,-0.11011943,0.7245977,6.5175257,6.831295,9.31E-05,0.03713891,-0.0503591
0.48834848,6.691194,7.6787863,-0.014382141,0.01653892,-0.016779304,0.6655354,6.5609426,7.043168,-0.003525674,0.03198891,-0.04196415
0.848421,6.834361,7.372342,0.008342025,0.007986814,-0.057340723,0.7112568,6.6292973,7.1254616,-5.59E-04,0.025988387,-0.045808293
0.5395822,6.970346,7.5088053,-0.008762185,0.016294573,0.17772001,0.6683382,6.7145596,7.2212973,-0.0026096082,0.023564933,0.010073781
0.6185874,6.699813,7.290464,-0.023178592,-0.062140454,-0.16485293,0.6559005,6.7108727,7.238589,-0.007751854,0.0021385867,-0.033657897
0.5304846,6.4129996,7.177462,0.044993903,-0.0768012,0.17038964,0.6245465,6.6364045,7.223307,0.0054345857,-0.01759636,0.017353985
0.83740807,6.627511,7.4388976,-0.021223824,0.014828498,-0.098635174,0.6777619,6.634181,7.2772045,-0.0012300168,-0.009490145,-0.011643305
0.8378869,5.8877344,7.9330397,0.014450676,0.010918964,0.09659719,0.71779317,6.4475694,7.441163,0.0026901565,-0.004387868,0.015416818
0.6645541,6.0414357,7.3651595,0.0151837105,0.08910965,0.0807147,0.7044834,6.346036,7.422162,0.005813545,0.018986512,0.03174129
0.61236274,6.970346,6.5219584,0.059899017,0.123562455,0.045284547,0.6814532,6.5021133,7.197111,0.019334912,0.0451305,0.035127103
0.9762657,5.316024,7.8229113,0.026423626,0.07347151,0.03770983,0.75515634,6.205591,7.3535614,0.02110709,0.05221575,0.035772786
0.72105485,6.294253,6.71588,0.03546442,0.077869736,0.09195462,0.74663097,6.2277565,7.194141,0.024696423,0.05862925,0.049818244
0.6966351,6.880328,7.47864,3.43E-05,0.059788145,-0.023132302,0.734132,6.3908997,7.2652655,0.018530883,0.05891897,0.03158061
0.56495965,6.2219515,7.9148455,-0.02513336,-0.012293894,0.010343085,0.6918389,6.3486624,7.4276605,0.007614822,0.041115753,0.026271228
0.574536,7.028763,5.879861,-0.03515154,0.09497395,-0.024598379,0.6625132,6.5186872,7.0407104,-0.0030767685,0.0545803,0.013553826
0.7177031,6.522171,7.976134,0.020803671,-0.010339126,-0.040480856,0.67631066,6.519558,7.274566,0.0028933417,0.038350444,4.52E-05
0.858955,6.6078796,7.3455286,-0.10503447,0.033154435,0.029402062,0.72197175,6.5416384,7.292307,-0.024088612,0.037051443,0.0073843827
0.53431517,5.8973117,7.450389,0.056966864,0.08006884,0.007655279,0.6750576,6.3805566,7.331827,-0.0038247425,0.047805794,0.0074521066
0.46967444,5.8039412,7.548548,-0.07302515,-0.006429593,-0.032661792,0.6237118,6.2364025,7.3860073,-0.021124845,0.034246948,-0.0025763684
0.23984101,5.4706826,8.140368,0.07333803,-0.058963962,0.05554708,0.5277441,6.0449724,7.5745974,0.0024908744,0.010944221,0.011954494
0.41987723,5.2351036,8.0311985,-0.036128927,-0.02622161,0.07509475,0.50077736,5.8425055,7.6887474,-0.007164076,0.0016527632,0.027739558
0.29586294,6.004088,7.4087324,-0.0705817,-0.030619837,0.34460825,0.44954875,5.882901,7.618744,-0.023018481,-0.0064153867,0.106956735
0.57980305,5.5879936,8.75661,0.063075505,0.12698327,0.36097944,0.48211232,5.8091745,7.9032106,-0.0014949851,0.026934277,0.17046241
0.9714776,6.237752,7.5772767,-0.021712516,0.20150875,-0.004317669,0.6044536,5.916319,7.8217273,-0.0065493677,0.07057789,0.1267674
0.70285976,5.4266315,8.322321,0.06454158,0.17389768,0.036488093,0.62905514,5.793897,7.9468756,0.011223368,0.09640784,0.10419757
0.6779611,5.732118,8.224642,-0.01560387,0.12087463,-0.05245381,0.6412816,5.7784524,8.016317,0.0045165587,0.102524534,0.065034725
0.3245921,5.504679,8.214586,0.049147792,0.060765527,-0.09619172,0.56210923,5.710009,8.065885,0.015674368,0.09208478,0.024728112
0.41269493,6.1348057,7.489175,-0.018047329,0.029244907,0.051637545,0.52475566,5.8162084,7.921707,0.0072439434,0.076374814,0.031455472
0.6477955,5.939926,8.765707,-0.009739571,-0.025488574,0.019872572,0.55551565,5.847138,8.132708,0.0029980647,0.050908968,0.028559748
0.1981837,5.7029104,7.671126,0.055012092,-0.022312079,0.07949298,0.46618265,5.811081,8.017312,0.016001571,0.032603707,0.041293055
0.87475604,6.046224,8.531086,-0.005096996,0.12991542,0.04723931,0.568326,5.869867,8.145756,0.010726929,0.056931634,0.042779617
0.8771502,6.298562,6.7862673,-0.054699212,0.13920057,-0.1685181,0.645532,5.977041,7.8058834,-0.0056296065,0.07749887,-0.010044813
0.7411653,5.5267043,7.621807,0.10046042,0.160703,-0.27896243,0.6694403,5.8644567,7.7598643,0.0208929,0.098299906,-0.07727422
0.83836573,6.865964,7.276578,-0.014382137,0.14213271,-0.4910547,0.7116717,6.1148334,7.639043,0.012074141,0.10925811,-0.18071935
-0.45253244,6.4197035,8.18873,0.30400056,-0.38101184,-0.7466405,0.42062068,6.191051,7.7764645,0.085055746,-0.013309382,-0.32219964
-1.7381634,6.8458533,6.6545916,0.13149236,-0.45773643,0.50489914,-0.1190753,6.3547516,7.4959965,0.0966649,-0.12441614,-0.115424946
-0.32037807,7.736458,5.883692,0.009563758,-0.24295644,0.5027001,-0.16940099,6.700178,7.0929203,0.074889615,-0.15405121,0.03910631
0.7229701,7.648355,5.91673,-0.035151545,0.04586043,0.17307745,0.05369179,6.9372225,6.798873,0.047379326,-0.1040733,0.0725991
1.1299669,7.6038256,7.84398,0.023980167,0.091797456,-0.08128662,0.32276058,7.1038733,7.0601497,0.041529536,-0.05510561,0.034127668
0.6717364,6.4560943,7.929209,0.008342025,0.020448456,-0.018978424,0.41000456,6.9419284,7.2774143,0.03323266,-0.036217093,0.020851145
0.3312956,5.237498,6.934701,-0.010472609,0.067118526,0.03404464,0.39032733,6.5158205,7.191736,0.022306342,-0.010383189,0.024149518
0.4040762,4.8577933,8.462135,-0.012427373,-0.0037417877,-0.0043176673,0.39376456,6.1013136,7.509336,0.0136229135,-0.008722838,0.017032722
0.3882751,5.4323773,8.353922,0.033998348,0.030955326,0.11785529,0.3923922,5.9340796,7.7204823,0.018716771,0.001196703,0.042238362
0.7229701,7.266736,7.2440186,-0.021956863,-0.01937993,-0.16583031,0.26171398,3.1845837,2.9545972,-0.0054892157,-0.0048449826,-0.04145758
0.07225412,7.6292024,6.625862,-0.021956861,-0.096348874,-0.14701566,0.21434902,4.295738,3.8724134,-0.009606127,-0.027720954,-0.0678471
0.38348693,7.1623535,6.9299116,0.07993537,0.018738037,0.09268765,0.2566335,5.012392,4.636788,0.012779247,-0.016106207,-0.027713414
0.5865065,7.6110067,6.5238733,0.0036994545,-0.073624715,-0.051965117,0.33910173,5.6620455,5.108559,0.010509299,-0.030485835,-0.03377634
0.118699595,7.2054467,6.22509,0.0093194125,-0.06433956,0.041130662,0.2840012,6.047896,5.387692,0.010211827,-0.038949266,-0.015049588
0.30926988,6.9564605,6.605751,-0.020490784,-0.012782587,0.2735036,0.29031837,6.275037,5.692207,0.0025361744,-0.032407597,0.057088707
0.7540934,7.1585226,5.798462,-0.04859056,0.0771367,0.21803708,0.40626213,6.4959083,5.7187705,-0.010245509,-0.005021522,0.0973258
1.1060259,7.1345816,8.615358,0.024468862,0.035109214,-0.075422324,0.5812031,6.6555767,6.4429173,-0.0015669167,0.005011162,0.054138772
0.5031918,7.2834954,5.4589777,-0.032463737,0.044150006,0.07924863,0.5617003,6.8125563,6.1969323,-0.009291122,0.014795873,0.060416237
0.70956326,7.057013,7.583022,-0.03441851,0.044883043,-0.047078196,0.598666,6.8736706,6.5434546,-0.015572969,0.022317667,0.03354263
0.36672825,6.4015083,7.2478485,0.045971297,0.031444024,0.095619805,0.5406816,6.75563,6.719553,-1.87E-04,0.024599256,0.049061924
0.7780344,6.876976,6.932307,0.056233823,0.050991695,-0.019467112,0.6000198,6.7859664,6.7727413,0.013918279,0.031197365,0.031929664
0.6324733,6.200404,6.213119,-0.033196773,0.023380607,0.0015466306,0.6081332,6.639576,6.632836,0.0021395162,0.029243175,0.024333905
0.27623135,5.915027,9.045816,0.0034551062,0.042683933,-0.018245384,0.52515775,6.458439,7.236081,0.0024684137,0.032603364,0.013689083
0.6899316,6.6792235,7.2698746,-0.0344185,0.01531719,0.057990536,0.5663512,6.513635,7.2445297,-0.006753315,0.028281821,0.024764447
0.96573174,6.474768,6.7000785,-0.016336907,0.078602776,-0.27847376,0.66619635,6.5039186,7.108417,-0.009149213,0.04086206,-0.051045105
0.24941742,6.737161,7.4518266,0.022758432,-0.117851324,-0.17682587,0.5620016,6.562229,7.194269,-0.0011723023,0.0011837147,-0.082490295
0.4040762,6.767806,6.867666,-0.08988501,-0.05285531,0.08169209,0.52252024,6.6136236,7.1126184,-0.02335048,-0.012326041,-0.041444696
0.57980305,5.813039,7.074037,0.04255045,-0.01620343,-0.08568484,0.5368409,6.4134774,7.102973,-0.0068752468,-0.013295388,-0.052504733
0.10241976,6.7400336,5.9679637,-0.009739569,-0.024266845,0.13202733,0.42823562,6.495116,6.8192205,-0.0075913277,-0.016038252,-0.006371718
0.3619401,6.2018404,8.71256,0.0066316044,0.03193271,0.03160118,0.41166174,6.4217973,7.2925553,-0.004035595,-0.0040455107,0.0031215064
0.27383724,6.7457795,6.3304305,-0.013404757,0.006520736,0.035510715,0.3772056,6.502793,7.052024,-0.006377885,-0.001403949,0.011218809
0.3892328,6.3311224,8.28593,0.05672252,-8.10E-04,0.021094304,0.38021243,6.459875,7.3605003,0.009397216,-0.0012553716,0.013687682
0.45866162,6.994766,7.589247,-0.055920944,-5.65E-04,0.11150228,0.39982474,6.593598,7.417687,-0.006932324,-0.0010828507,0.038141333
0.74978405,6.281325,7.6462264,0.007853336,-0.031841565,-0.021666229,0.48731458,6.5155296,7.474822,-0.003235909,-0.00877253,0.023189442
0.12300901,6.3411775,7.5835023,0.033754,-0.025488572,0.10514929,0.3962382,6.4719415,7.501992,0.006011568,-0.01295154,0.043679405
0.85943377,6.5173826,6.5071144,-0.0068074185,0.079335816,-0.1365088,0.5120371,6.4833016,7.253273,0.0028068214,0.010120299,-0.0013676435
0.14551353,6.762538,6.9576845,0.017138477,0.021425838,0.14448898,0.42040622,6.5531106,7.1793756,0.0063897353,0.012946684,0.03509651
0.42945355,5.7876616,7.2914214,-0.049079258,0.072249785,-0.043168664,0.42266804,6.361748,7.207387,-0.0074775126,0.02777246,0.015530217
0.34230846,6.9588547,6.504242,-0.049812295,-0.06653868,0.009365703,0.40257815,6.511025,7.031601,-0.018061208,0.004194677,0.013989089
0.29682055,6.172154,6.3744817,-0.036128923,-0.052122273,0.119321354,0.37613875,6.426307,6.867321,-0.022578137,-0.0098845605,0.040322155
0.4615345,6.7443438,7.4997087,-0.07693469,-0.07069256,0.03233422,0.3974877,6.5058165,7.025418,-0.036167275,-0.025086561,0.038325172
0.7703732,6.2750998,6.939967,-0.027088117,-0.019135574,0.15890539,0.49070907,6.4481373,7.004055,-0.033897486,-0.023598814,0.068470225
0.9274262,7.180069,7.212416,0.013717636,0.08495577,0.037221134,0.5998883,6.63112,7.056145,-0.021993704,0.0035398304,0.060657952
0.8053271,5.813039,7.8415847,-0.008029149,0.0803132,0.014741312,0.65124804,6.4266,7.2525053,-0.018502565,0.022733172,0.049178794
0.52952695,5.6148076,8.3213625,-0.0036309212,0.08959834,-0.020688843,0.6208178,6.223652,7.5197196,-0.014784655,0.039449465,0.031711884
0.39545745,5.2513833,8.932337,0.08042407,-0.011072165,-0.009937624,0.5644777,5.9805846,7.872874,0.009017527,0.026819058,0.021299507
0.5979982,6.6222444,7.2679596,0.028622735,-0.0047191707,0.1525524,0.5728578,6.141,7.7216454,0.013918829,0.0189345,0.05411273
0.8024543,5.478822,8.074291,0.023247126,0.031444024,0.0030127056,0.6302569,5.9754553,7.809807,0.016250903,0.02206188,0.04133772
0.93796027,6.077826,8.452081,0.029111423,0.085444465,0.12665173,0.70718277,6.001048,7.970375,0.019466033,0.037907526,0.06266622
0.6640753,6.4819503,7.3455286,0.012495908,0.08837661,-0.07713274,0.6964059,6.1212735,7.814163,0.017723503,0.050524797,0.02771648
0.50510716,5.810645,9.657748,0.012984599,0.01898238,-0.075177975,0.6485812,6.0436163,8.27506,0.016538776,0.042639192,0.0019928664
0.5908159,6.1501284,6.978273,-0.037594993,0.04219524,0.087800734,0.6341399,6.0702443,7.950863,0.0030053342,0.042528205,0.023444833
0.8900782,6.133848,7.6988974,-0.04297061,0.032665752,-0.15263563,0.69812447,6.0861454,7.8878717,-0.008488651,0.04006259,-0.020575283
0.1426406,5.599964,7.522692,0.05305732,-0.07166994,-0.032906137,0.5592535,5.9646,7.796577,0.0068978416,0.012129458,-0.023657996
0.43424183,6.2564263,8.198305,-0.012916066,-0.019868616,0.18895993,0.5280006,6.0375566,7.897009,0.001944365,0.004129939,0.029496484
1.0083468,6.0538855,7.1903906,0.06527462,0.1484857,-0.17193896,0.64808714,6.041639,7.720354,0.017776929,0.040218882,-0.020862378
0.63343084,4.917167,7.6084,-0.030508973,0.03486486,-0.30290836,0.64442307,5.760521,7.6923656,0.0057054535,0.038880378,-0.091373876
-0.01776402,6.3004775,7.8195596,-0.018780366,-0.110032246,0.33410138,0.4788763,5.89551,7.724164,-4.16E-04,0.0016522221,0.014994934
0.1565264,5.9739227,8.48033,0.010541142,0.06272029,0.2581098,0.39828882,5.9151134,7.9132056,0.0023232845,0.01691924,0.07577366
0.62337565,5.301181,9.395356,0.06600765,0.29216108,-0.0971691,0.45456052,5.76163,8.283743,0.018244376,0.0857297,0.032537967
0.6813128,6.1300173,7.8578653,0.07455976,0.199554,-0.41261965,0.5112486,5.853727,8.177274,0.032323223,0.11418578,-0.07875144
0.0037830353,7.259074,6.3471885,0.109012544,-0.31992537,-0.75299346,0.3843822,6.205064,7.7197523,0.051495552,0.0056579933,-0.24731195
-1.4484775,7.403678,6.8255296,0.02471321,-0.49267793,0.50856435,-0.07383275,6.5047174,7.4961967,0.04479997,-0.11892599,-0.058342874
0.27240083,6.8300514,5.464724,-0.043214954,-0.24246773,0.47069076,0.012725644,6.586051,6.9883285,0.022796238,-0.14981142,0.07391554
0.77468264,8.581575,7.4513474,-0.10136927,-0.033796333,0.035510708,0.20321488,7.0849323,7.104083,-0.008245138,-0.12080765,0.064314336
0.56639606,7.5908966,6.025422,-0.012916064,-0.06800476,0.24906904,0.29401016,7.2114234,6.834418,-0.00941287,-0.107606925,0.11050301
0.5036707,6.3440504,6.3759184,-0.06960431,-0.029886803,0.21950316,0.3464253,6.9945803,6.719793,-0.02446073,-0.08817689,0.13775305
1.0294148,7.3620214,6.5803742,-0.051767062,0.09399657,0.21143976,0.5171727,7.0864406,6.6849384,-0.031287313,-0.042633526,0.15617473
0.9130615,4.9875536,9.153072,-0.016825601,0.19466709,0.117122255,0.6161449,6.561719,7.301972,-0.027671885,0.016691625,0.14641161
0.35858837,5.9360957,8.038381,-0.035151545,0.09179745,0.04723932,0.5517558,6.405313,7.486074,-0.0295418,0.03546808,0.12161854
1.023669,5.2973504,9.054436,0.06014335,0.0387744,0.07118522,0.6697341,6.1283226,7.8781643,-0.0071205124,0.03629466,0.109010205
0.68322814,5.786704,8.352964,0.021536704,0.122340694,0.021582998,0.6731076,6.042918,7.9968643,4.38E-05,0.05780617,0.087153405
1.0930979,5.53676,7.3847914,0.027889695,0.10205999,-0.01433585,0.7781052,5.9163785,7.8438463,0.007005268,0.06886963,0.061781093
0.7028597,5.8997054,7.822432,-0.004363959,0.05758903,0.10343886,0.7592938,5.9122105,7.838493,0.004162961,0.06604948,0.07219554
0.81538236,6.1252294,8.160479,0.012251561,0.1511735,0.04039763,0.7733159,5.965465,7.918989,0.006185111,0.08733048,0.06424606
0.74164414,6.2798877,7.419745,-0.0026535392,-0.005940901,0.09219896,0.2685372,2.7396402,3.2522435,-6.63E-04,-0.0014852253,0.02304974
0.8589549,6.143424,7.563391,-0.0036309217,-0.030864183,-0.0231323,0.41614163,3.5905862,4.3300304,-0.001405269,-0.008829964,0.01150423
2.1321368,6.832925,6.6938543,0.033265304,0.17927329,0.54717106,0.84514046,4.4011707,4.920986,0.0072623743,0.03819585,0.14542094
0.24654451,7.1685777,6.864314,-0.004119614,-0.12005042,-0.41750658,0.69549143,5.0930223,5.4068184,0.0044168774,-0.0013657212,0.0046890676
-0.07330706,6.9847107,6.884903,-0.015848216,-0.17136307,-0.43778732,0.50329185,5.5659447,5.7763395,-6.49E-04,-0.04386506,-0.10593003
2.715818,7.472628,7.534662,0.09313005,0.303401,0.773191,1.0564234,6.0426154,6.21592,0.022795465,0.042951453,0.11385022
1.8156369,6.6112313,5.8247967,0.07920234,0.16998813,-0.17291632,1.2462268,6.1847696,6.1181393,0.036897182,0.07471062,0.04215859
-0.3706542,7.095319,6.7958426,-0.009983914,-0.17502826,-0.8993566,0.84200656,6.412407,6.287565,0.025176909,0.012275901,-0.19322021
0.8144247,7.320842,6.5985694,-0.015603869,0.04170655,0.17845306,0.8351111,6.639516,6.3653164,0.014981714,0.019633563,-0.10030189
0.6722152,7.513807,6.136508,0.01420633,0.045127384,0.07069651,0.7943871,6.8580885,6.308114,0.014787868,0.026007019,-0.057552293
0.61140513,7.420916,7.123835,0.033998348,-7.66E-05,0.12469696,0.7486416,6.9987955,6.5120444,0.019590488,0.019486114,-0.011989981
1.013135,7.3505297,6.2897305,0.062586814,0.08055754,0.19580162,0.814765,7.086729,6.4564657,0.030339569,0.03475397,0.03995792
-0.060378958,6.6418753,6.33043,-0.048101872,-0.03746152,-0.17291634,0.595979,6.9755154,6.424957,0.010729209,0.016700098,-0.013260648
0.77085215,7.4783735,6.7628045,-0.0050969957,-0.077289894,0.1232309,0.63969725,7.1012297,6.5094185,0.0067726574,-0.0067973994,0.020862237
0.83214104,7.056534,7.59212,0.0071202973,0.10352606,0.13593687,0.6878082,7.0900555,6.780094,0.0068595675,0.020783465,0.049630895
0.4711109,6.812336,7.5509415,-0.023178592,0.0023668613,-0.23522456,0.6336339,7.0206256,6.972806,-6.50E-04,0.016179314,-0.021582969
0.38348696,6.4201827,6.555954,0.030577503,-0.04650232,0.013275233,0.5710972,6.870515,6.868593,0.0071568964,5.09E-04,-0.012868418
0.58171827,6.6006975,7.5710526,0.0073646447,0.033643138,0.0042344416,0.57375246,6.8030605,7.044208,0.0072088335,0.008792464,-0.008592703
0.5697478,6.597824,7.6941085,0.0044324948,-0.03037549,-0.085440494,0.5727513,6.7517514,7.206683,0.0065147486,-1.00E-03,-0.02780465
1.0064315,7.6057405,7.2885485,0.09581785,-0.024999881,0.24906904,0.6811713,6.9652486,7.2271495,0.028840523,-0.006999614,0.04141377
0.020541549,6.4757257,7.0472236,-0.024889015,0.06320898,-0.18611102,0.51601386,6.842868,7.182168,0.015408139,0.010552535,-0.015467428
0.91593444,7.147031,7.4925256,0.07627018,0.022403222,0.021582995,0.615994,6.9189086,7.2597575,0.030623648,0.013515206,-0.006204822
0.4035974,7.1163864,6.642621,0.04499391,0.025824063,-0.14701566,0.5628948,6.968278,7.1054735,0.034216214,0.01659242,-0.04140753
0.4366359,6.5341415,8.113555,-0.010716952,-0.017180808,-0.099123865,0.5313301,6.859744,7.357494,0.022982921,0.0081491135,-0.055836614
0.5314423,6.963642,6.6043143,0.0396183,-0.018402543,0.02207169,0.5313581,6.8857183,7.169199,0.027141765,0.0015111994,-0.036359537
0.37869874,6.7251906,7.708473,-0.02806551,-0.024266843,-0.043901697,0.49319327,6.8455863,7.3040175,0.013339946,-0.004933311,-0.03824508
0.5462857,6.7874374,6.4927506,0.043527834,-0.06922649,0.03795417,0.5064664,6.831049,7.101201,0.020886919,-0.021006605,-0.019195266
0.4356783,5.97871,5.443656,-0.10283535,0.03804136,0.0154743465,0.48876935,6.6179643,6.686815,-0.010043649,-0.006244613,-0.010527863
0.40742794,6.801323,7.880848,0.0036994582,-0.02524423,-0.03779306,0.468434,6.663804,6.985323,-0.0066078724,-0.010994517,-0.017344162
0.6209816,6.521692,7.314883,-0.024155974,0.004077281,0.04113067,0.5065709,6.628276,7.067713,-0.010994898,-0.0072265677,-0.002725454
0.65402013,6.3723,8.731233,0.019093249,0.05245777,-0.006028089,0.5434332,6.564282,7.483593,-0.0034728614,0.0076945163,-0.003551113
0.5922524,7.0498304,8.093924,0.058677286,-0.031352878,-0.07615536,0.55563796,6.685669,7.6361756,0.012064675,-0.0020673322,-0.021702174
0.6626388,6.922465,5.6165094,0.0036994545,-0.008140015,0.07387301,0.58238816,6.744868,7.131259,0.00997337,-0.003585503,0.0021916218
0.44190294,5.245638,8.509539,-0.01022826,0.03828571,-0.015068885,0.54726684,6.3700604,7.475829,0.004922962,0.0068823,-0.0021235049
0.3437449,6.7840853,7.6189337,0.017382823,-0.02255642,-0.038770434,0.49638635,6.4735665,7.5116053,0.008037927,-4.77E-04,-0.011285237
0.7363771,6.8482466,7.651973,0.092397004,0.017516304,0.014496964,0.556384,6.5672364,7.546697,0.029127697,0.004021041,-0.0048396867
0.46297103,7.2657776,6.731681,0.030088808,0.012629386,-0.0439017,0.53303075,6.741872,7.342943,0.029367974,0.0061731273,-0.014605191
0.33656263,5.456797,8.101584,-0.037595,0.03510921,-0.04756689,0.48391372,6.4206033,7.5326033,0.012627231,0.013407148,-0.022845615
0.5309634,7.058928,6.140339,0.07358238,-0.07435775,0.012297855,0.49567616,6.5801845,7.184537,0.027866019,-0.008534076,-0.014059748
0.7066903,6.6940675,7.9579377,0.027889695,0.026312754,0.051881894,0.5484297,6.608655,7.3778872,0.027871938,1.78E-04,0.0024256622
0.35667303,6.5801086,6.8006315,0.003455109,0.07493759,-0.045612123,0.50049055,6.6015186,7.2335734,0.021767732,0.018867621,-0.009583784
0.4059915,5.3447533,8.075727,0.01811586,0.058810756,0.009121354,0.47686577,6.2873273,7.444112,0.020854764,0.028853405,-0.0049075
0.41125852,6.009834,7.807589,-0.0112056425,0.03168837,0.010098738,0.46046394,6.2179537,7.5349813,0.012839662,0.029562145,-0.0011559406
4.31E-04,5.4749923,7.370906,0.014206328,-0.047479708,0.034777675,0.34545574,6.032213,7.4939623,0.013181329,0.010301683,0.007827463
0.80820006,5.748877,8.28593,-0.019513406,-0.11443047,0.10319452,0.46114182,5.961379,7.691954,0.005007645,-0.020881355,0.03166923
0.6233756,5.6856728,8.913183,-0.052988794,-0.025732923,0.20850761,0.5017003,5.8924522,7.9972615,-0.009491464,-0.022094246,0.07587883
0.60901105,5.766593,7.346486,0.05403471,0.050747342,0.1303169,0.528528,5.8609877,7.8345675,0.00639008,-0.0038838498,0.08948834
0.75888157,5.466373,8.677126,-0.039305422,0.083001,0.14473332,0.5861164,5.762334,8.045207,-0.0050337957,0.017837364,0.10329959
0.3078334,4.8506117,8.666113,-0.09183979,0.043905657,-0.10254472,0.51654565,5.5344033,8.200434,-0.026735295,0.024354437,0.05183851
0.4557887,6.2363157,6.9964685,0.031554885,0.022891914,0.1510863,0.5013564,5.7098813,7.8994427,-0.01216275,0.023988806,0.076650456
0.41844076,5.9020996,6.546857,-0.06007482,0.12942672,-0.1455496,0.4806275,5.757936,7.5612965,-0.024140768,0.05034828,0.021100443
0.36098245,6.273185,8.040296,0.04694868,-0.03428502,-0.08446312,0.45071626,5.8867483,7.6810465,-0.006368406,0.029189955,-0.0052904487
0.6770035,6.127145,8.080996,0.017627172,0.022647565,0.044795856,0.5072881,5.9468474,7.7810335,-3.70E-04,0.027554357,0.0072311275
0.7799497,6.138636,6.9739637,-0.010961294,-0.04185975,0.04748366,0.5754535,5.994795,7.579266,-0.0030174572,0.01020083,0.017294262
0.11439023,5.7282877,8.806887,0.018360212,-0.0086287055,0.08584596,0.4601877,5.9281683,7.8861713,0.0023269602,0.0054934463,0.034432188
0.6066169,6.10895,9.238302,0.04963648,0.12698327,0.16232622,0.496795,5.973364,8.224204,0.014154339,0.035865903,0.0664057
1.955452,5.886298,6.48078,0.09044224,0.31781742,0.1430229,0.86145926,5.951597,7.788348,0.033226315,0.10635378,0.085559994
