Accel x,Accel y,Accel z,Gyro x,Gyro y,Gyro z,AccelLPF x,AccelLPF y,AccelLPF z,GyroLPF x,GyroLPF y,GyroLPF z
-1.2138557,6.9454474,6.508551,0.004321867,-0.008441387,0.013251948,-0.61680055,2.9600768,2.9659991,0.0010804668,-0.0021103467,0.003312987
-0.5698432,6.3684697,5.019422,0.0011453726,-0.023713004,0.039519127,-0.6050612,3.812175,3.4793549,0.0010966932,-0.007511011,0.012364523
-1.2306144,8.094615,6.8437247,-0.011071923,-0.04509327,0.02730183,-0.76144946,4.882785,4.3204474,-0.0019454608,-0.016906574,0.01609885
-0.09102343,7.790564,7.030464,-0.03342957,0.05667679,0.30182445,-0.593843,5.60973,4.9979515,-0.009816488,0.0014892668,0.08753025
-0.36395067,7.769017,8.198785,0.046105016,-0.06403008,-0.08497509,-0.5363699,6.1495514,5.7981596,0.0041638874,-0.01489057,0.04440391
-0.97683996,12.028119,11.208167,0.0290008,-0.006975308,0.08411226,-0.6464874,7.619193,7.1506615,0.010373116,-0.012911755,0.054330997
0.14599234,7.405114,-7.659725,0.02386954,0.1334014,-0.03928242,-0.44836748,7.5656734,3.4480648,0.013747222,0.02366653,0.030927643
-1.6926756,-0.24642497,0.659768,0.14420989,-0.033242498,-0.3853984,-0.7594445,5.612649,2.7509906,0.04636289,0.009439274,-0.07315387
0.16035694,9.07859,3.5087454,0.009697463,-0.04619283,0.22412246,-0.5294941,6.4791346,2.9404292,0.037196536,-0.004468752,0.0011652112
-0.12454082,12.547639,5.7065277,0.012751801,0.1397544,0.1263841,-0.4282558,7.9962606,3.6319537,0.031085351,0.031587034,0.032469932
1.4435939,17.067698,-4.9184823,-0.10942115,-0.05706621,-0.20568196,0.039706618,10.26412,1.4943447,-0.004041275,0.009423723,-0.027068041
0.5553832,10.28761,-6.8217907,0.16168061,-0.1541937,0.031455714,0.16862577,10.269993,-0.58468914,0.037389196,-0.031480633,-0.012437102
-0.785312,5.7268515,-3.1253023,-0.0059406636,-0.07807996,0.15228476,-0.06985867,9.134208,-1.2198424,0.02655673,-0.043130465,0.028743364
0.7014232,4.6926003,6.6593795,0.029122971,0.031753514,0.18075106,0.122961804,8.023806,0.74996305,0.02719829,-0.02440947,0.06674529
-2.8322663,-0.6486336,4.8255,-0.08388699,0.12252803,-0.096092835,-0.6158452,5.8556957,1.7688472,-5.73E-04,0.012324907,0.026035756
-1.877021,3.75172,-0.5564342,0.054046243,0.04299342,-0.07837775,-0.9311391,5.329702,1.187527,0.013081789,0.019992035,-6.76E-05
-1.4484774,7.6277657,19.063206,0.02228129,-0.015160902,-0.03683896,-1.0604737,5.9042177,5.6564465,0.015381664,0.0112038,-0.009260456
-1.3814427,10.886134,7.0161,0.02044869,-0.041916765,0.09535217,-1.140716,7.149697,5.99636,0.016648421,-0.0020763408,0.016892701
-1.024722,12.758319,15.776107,-0.08877392,0.0503238,-0.05736402,-1.1117175,8.551852,8.441297,-0.009707164,0.011023695,-0.0016714782
-0.90741116,5.9399257,13.858434,0.09424116,0.05557724,-0.012526546,-1.0606409,7.8988705,9.795581,0.016279917,0.022162082,-0.004385245
-0.02159457,9.772879,-3.5107522,-0.10306817,-0.045093276,-0.0682374,-0.80087936,8.3673725,6.4689975,-0.013557106,0.005348243,-0.020348284
0.11726317,14.628112,20.789352,-0.1242041,-0.043627195,0.07617101,-0.5713437,9.932557,10.049086,-0.041218854,-0.0068956167,0.0037815385
-0.8020707,3.5793447,-1.449433,0.0050549065,0.06535108,-0.026332088,-0.62902546,8.344254,7.1744556,-0.029650414,0.011166057,-0.003746868
-1.1994911,-11.991873,5.266014,-0.12811363,-0.006975312,0.06163242,-0.77164185,3.260222,6.6973453,-0.054266218,0.0066307145,0.012597955
1.615969,1.1493347,6.0536723,-0.04723512,0.034685664,-0.04416934,-0.17473912,2.7325,6.536427,-0.052508444,0.013644451,-0.0015938692
-0.26100445,8.3412075,12.299876,-0.0061850008,-0.0019662227,0.042573452,-0.19630545,4.134677,7.977289,-0.04092758,0.009741783,0.009447961
-1.1324564,-0.23445448,9.886625,-0.00630718,-0.01149571,6.68E-04,-0.4303432,3.0423942,8.454623,-0.03227248,0.00443241,0.0072530042
2.4778445,-2.800928,17.96192,-0.045158166,-0.05975402,0.021681879,0.2967037,1.5815636,10.831448,-0.035493903,-0.011614198,0.010860223
2.4610858,0.13184264,15.943694,-0.10526727,0.040183447,0.054790754,0.8377992,1.2191334,12.109509,-0.052937247,0.001335213,0.021842856
-0.6847599,5.204938,15.656403,-0.02671006,-0.0639079,0.112578556,0.4571594,2.2155845,12.996233,-0.04638045,-0.014975565,0.044526782
1.6494863,-0.26078957,15.922147,0.016416976,-0.08113429,0.074460596,0.75524116,1.596491,13.727712,-0.030681092,-0.031515248,0.052010234
-1.6423994,3.9097304,5.665828,0.12588395,-0.017726526,-0.09377155,0.15583098,2.1748009,11.71224,0.008460168,-0.028068068,0.015564788
0.4069491,6.0476604,7.688842,0.09851722,0.019414045,-0.118083954,0.21861051,3.1430159,10.70639,0.03097443,-0.01619754,-0.017847396
-0.1125703,7.3572326,6.175771,0.01153007,0.004264598,-0.03341812,0.13581531,4.19657,9.573735,0.026113339,-0.011082006,-0.021740077
0.38300812,6.8712306,6.2260475,0.012507454,-0.0106405,0.022292744,0.19761351,4.8652353,8.736814,0.022711867,-0.010971629,-0.010731872
0.16753924,6.7084317,7.0208883,-0.008628464,0.030898299,0.041351724,0.19009495,5.3260345,8.307833,0.014876785,-5.04E-04,0.002289027
-0.24903394,6.835319,6.266747,9.01E-04,-0.0033101232,-0.04942278,0.08031273,5.703356,7.797561,0.011382844,-0.0012056413,-0.010638924
0.03825791,6.998118,6.949065,0.021426078,0.054233335,0.02803487,0.06979902,6.027046,7.5854373,0.013893653,0.012654103,-9.70E-04
0.20105663,6.811378,7.229175,0.0060322885,0.018558834,-0.06835958,0.10261342,6.2231293,7.4963717,0.011928312,0.014130286,-0.017817752
-0.067082435,5.0014396,10.090122,0.055169083,0.04355774,-0.044308968,-0.016770609,1.2503599,2.5225306,0.013792271,0.010889435,-0.011077242
0.77324617,8.016808,5.4467683,0.06168498,0.018599559,-0.12703751,0.18073359,2.9419718,3.25359,0.025765449,0.012816966,-0.040067308
0.7229701,6.198489,8.0311985,0.03469057,0.0015535243,-0.2308263,0.31629273,3.7561011,4.4479923,0.02799673,0.010001105,-0.08775706
-0.32205403,6.350514,9.168394,-0.0051029003,0.03576196,0.053662103,0.15670604,4.404704,5.628093,0.019721823,0.01644132,-0.05240227
-0.49921727,9.553818,8.815266,0.040624678,-0.09868648,-0.05710803,-0.0072747916,5.6919823,6.4248857,0.024947537,-0.012340631,-0.05357871
1.6267425,16.88814,5.1271567,-0.031980958,-0.013165401,0.17612596,0.4012295,8.491022,6.1004534,0.010715414,-0.012546824,0.0038474575
-1.899765,6.9227037,5.2384815,-0.01749474,0.098710105,0.11951913,-0.1740191,8.098943,5.88496,0.0036628754,0.0152674075,0.032765374
-0.27536902,6.856866,-2.4477723,-0.0020776736,-0.034982,-0.11103865,-0.19935659,7.7884235,3.8017771,0.002227738,0.0027050562,-0.0031856298
0.31357926,12.921119,6.3445554,-0.084806204,0.06554889,0.19532456,-0.07112262,9.071597,4.437472,-0.019530747,0.018416014,0.046441916
-2.045805,5.8010683,5.583232,0.045104343,0.05565869,-5.01E-04,-0.5647932,8.253965,4.723912,-0.0033719745,0.027726684,0.034706127
-0.9959928,6.9250984,7.593078,0.053249225,-0.014387142,-0.005097265,-0.6725931,7.9217486,5.441203,0.010783326,0.017198227,0.024755279
-1.7166164,-0.76355034,2.7103133,-0.036169734,0.009814746,0.05831631,-0.93359894,5.750424,4.7584805,-9.55E-04,0.015352357,0.033145536
-1.8865976,3.2752945,-1.494921,0.03736676,0.10924026,0.044528216,-1.1718487,5.1316414,3.19513,0.008625485,0.038824335,0.035991207
0.6762852,10.805932,20.286589,-0.07788306,-0.013456292,-0.031684425,-0.7098152,6.550214,7.4679947,-0.013001651,0.025754178,0.019072298
-1.2808903,3.2525504,9.073828,0.103398286,0.03256221,0.035336163,-0.852584,5.725798,7.869453,0.016098334,0.027456187,0.023138264
0.7086056,17.211342,5.128353,-0.1780649,0.011269179,-0.0083552115,-0.4622866,8.597184,7.184178,-0.032442473,0.023409434,0.015264895
2.8178065,12.131065,2.485268,0.18379971,0.030002382,-0.01859447,0.3577367,9.480655,6.0094504,0.021618076,0.02505767,0.0068000536
-0.2526251,12.749941,16.72896,0.07081884,-0.024219144,-0.034709655,0.20514625,10.2979765,8.689327,0.03391827,0.012738466,-0.003577374
0.22619465,8.245443,11.6259365,-0.086144306,-0.061685503,-0.00963512,0.21040836,9.784843,9.423479,0.0039026253,-0.005867526,-0.0050918106
-1.3634869,6.950236,14.170864,-0.108193606,0.026744425,-0.040992837,-0.18306544,9.076192,10.610325,-0.024121433,0.0022854619,-0.014067067
0.28245604,8.914594,12.858898,0.0055435845,0.006149561,-0.058213413,-0.06668507,9.035792,11.172468,-0.01670518,0.0032514867,-0.025103653
-2.4061167,-6.866108,12.090393,0.09886046,-0.10496962,-0.03267344,-0.651543,5.060317,11.401949,0.012186229,-0.02380379,-0.0269961
-2.7353053,-4.701843,6.2440033,-0.04326742,-0.105725944,0.026784055,-1.1724836,2.6197772,10.112463,-0.0016771834,-0.04428433,-0.013551062
0.38420516,7.0208626,2.9329646,0.017644513,-0.060172897,0.16396683,-0.78331137,3.7200484,8.317589,0.0031532408,-0.04825647,0.03082841
-3.983828,-9.919781,6.439122,-0.054088447,-0.007463999,0.021140832,-1.5834405,0.31009102,7.847972,-0.011157181,-0.038058355,0.028406516
-0.4920349,3.581739,13.568748,-0.1674184,0.045244895,0.055058364,-1.3105891,1.128003,9.278166,-0.050222486,-0.017232543,0.035069477
-0.069476604,2.1069741,17.59682,-0.04146391,-0.076171726,-0.23076816,-1.0003109,1.3727458,11.35783,-0.048032843,-0.03196734,-0.031389933
1.8529848,5.36654,16.562569,-0.04227839,-0.06855048,0.08880136,-0.28698695,2.3711944,12.659015,-0.04659423,-0.041113123,-0.0013421103
-1.3993984,10.102067,3.906166,0.12952004,4.48E-04,0.31109792,-0.5650898,4.3039126,10.470802,-0.0025656596,-0.030722804,0.0767679
0.6439649,5.599964,10.846659,-0.08631883,-0.09967549,-0.13087721,-0.26282614,4.6279254,10.564766,-0.023503952,-0.047960974,0.02485662
1.299948,7.469755,6.530098,0.044697125,-0.043650467,0.13196915,0.1278674,5.3383827,9.556099,-0.0064536817,-0.04688335,0.05163475
-0.061097205,5.548491,7.5272403,0.11276488,-0.05569324,0.0088653555,0.08062625,5.3909097,9.048884,0.023350958,-0.049085822,0.0409424
0.9516066,7.485317,6.6162853,0.0062999087,-0.012001857,0.10829086,0.29837132,5.9145117,8.440735,0.019088196,-0.03981483,0.057779513
-0.112570405,6.425928,6.7587347,0.0059508407,-0.021950223,0.0033384822,0.19563589,6.042366,8.020235,0.015803857,-0.035348676,0.044169255
0.4572252,7.1657047,7.092711,-0.013945898,0.0039388034,0.0024658209,0.2610332,6.3232007,7.788354,0.008366418,-0.025526807,0.033743396
1.0174444,7.0627584,7.804956,-0.006964585,0.016214278,-0.006086286,0.450136,6.50809,7.7925043,0.004533667,-0.015091536,0.023785975
0.50750124,7.7175446,6.6701527,0.021833323,-0.033003964,0.07297706,0.12687531,1.9293861,1.6675382,0.0054583307,-0.008250991,0.018244265
-1.1133037,9.073801,5.2863636,0.015841031,0.009989264,0.15349486,-0.18316942,3.7154899,2.5722446,0.008054006,-0.0036909273,0.052056916
-0.4333796,10.451605,4.684248,-0.0031248624,0.11348722,0.10625464,-0.24572197,5.3995185,3.1002455,0.005259289,0.025603611,0.06560635
-1.2354026,6.070404,4.947599,0.05028217,-0.11701241,-0.18428425,-0.49314213,5.5672398,3.5620837,0.01651501,-0.010050394,0.0031336993
0.16275096,9.789637,5.4527535,-0.027792163,0.067352384,0.2655449,-0.32916886,6.622839,4.034751,0.005438216,0.009300301,0.06873649
1.9750838,4.4639645,-0.30505383,-0.11185879,0.071482986,-0.122616015,0.2468943,6.0831203,2.9497998,-0.023886036,0.024845973,0.020898364
-2.3654172,14.047541,7.1166525,9.48E-04,0.04204513,-0.17229967,-0.4061836,8.074225,3.991513,-0.017677635,0.029145762,-0.027401142
-2.3235207,5.43118,14.5623,-0.020810865,-0.082338534,-9.40E-05,-0.88551784,7.413464,6.6342096,-0.018460942,0.0012746882,-0.020574355
-1.314408,17.17184,1.1409818,-0.056182835,0.046582986,0.06617029,-0.9927404,9.853058,5.2609024,-0.027891416,0.012601763,0.0011118054
0.1854949,12.562003,0.35452038,0.04399897,0.03471477,-0.045356162,-0.69818157,10.530294,4.034307,-0.00991882,0.018130016,-0.010505186
-0.32205397,16.549374,-6.315439,-0.123843364,0.017377827,-0.2688163,-0.6041497,12.035065,1.4468703,-0.038399957,0.017941969,-0.07508296
0.6631177,9.261738,16.719383,0.030210905,-0.2526244,0.16699207,-0.28733283,11.341733,5.2649984,-0.021247242,-0.049699627,-0.014564201
-2.8382516,21.319614,24.188969,-0.09289289,-0.02800069,0.24384467,-0.92506254,13.836204,9.995991,-0.039158653,-0.044274893,0.050038017
-1.0618305,7.842038,-2.5004425,-0.18301,0.089634396,-0.021154277,-0.9592545,12.337662,6.8718824,-0.07512149,-0.010797571,0.032239944
-0.20234904,15.30205,-13.236778,0.2150411,-0.06401261,0.06558852,-0.7700281,13.078758,1.844717,-0.0025808439,-0.024101332,0.040577088
-1.3754573,10.374994,18.279139,0.024393123,0.031224106,-0.020223439,-0.9213854,12.402817,5.9533224,0.0041626478,-0.0102699725,0.025376957
-0.35437426,13.028852,0.86087203,0.015957352,5.64E-04,-0.036454987,-0.7796326,12.559326,4.68021,0.007111324,-0.007561355,0.009918971
-1.365881,0.3173853,11.463139,-0.10493564,-0.040159814,0.023235224,-0.9261947,9.498841,6.375942,-0.020900417,-0.015710969,0.013248034
0.4644074,1.8843229,16.5099,-0.11063705,-0.023753729,-0.019758021,-0.5785442,7.595212,8.909431,-0.043334574,-0.017721659,0.0049965195
-1.1623826,-1.3297546,14.658064,0.010605054,-0.011071015,-0.098297775,-0.7245038,5.3639703,10.34659,-0.029849667,-0.016058998,-0.020827055
-0.53273463,7.3536415,13.528049,-0.0822464,-0.02247382,-0.004631845,-0.67656153,5.861388,11.141954,-0.04294885,-0.017662704,-0.016778253
-0.51597595,-4.3044224,12.873262,-0.04018399,0.051993497,0.12236984,-0.6364151,3.3199356,11.574781,-0.042257637,-2.49E-04,0.018008769
1.519008,0.9147128,9.353937,0.03736673,0.102375284,0.06302869,-0.09755933,2.7186298,11.01957,-0.022351544,0.025407331,0.02926375
0.768458,7.8169,3.3351731,0.13621046,0.07927878,-0.0382585,0.118945,3.9931974,9.098471,0.017288957,0.038875192,0.012383187
-1.0151455,5.8788767,7.140593,0.1369086,0.08515473,-0.17462677,-0.16457763,4.4646173,8.609001,0.04719387,0.050445076,-0.034369305
-1.1180918,7.9557576,7.2423425,0.10240929,0.06967948,0.10404389,-0.4029562,5.3374023,8.267337,0.060997725,0.055253677,2.34E-04
-2.0242581,6.9490385,6.7838726,0.04900226,-0.061103735,0.025445972,-0.80828166,5.7403116,7.896471,0.05799886,0.026164323,0.0065369876
0.09811038,7.1800694,7.382397,-0.032388188,2.15E-04,0.005723766,-0.58168364,6.100251,7.7679524,0.035402097,0.019677103,0.006333682
-1.0534512,6.38044,7.3201504,0.007812522,-0.015027089,0.024515126,-0.6996255,6.1702986,7.656002,0.028504703,0.011001054,0.0108790435
0.11008087,7.211193,6.7144437,0.0075798123,-0.040450696,0.05337121,-0.4971989,6.430522,7.4206123,0.023273481,-0.0018618833,0.021502085
-1.340743,7.250695,6.149436,0.0015293439,-0.022532001,0.030449238,-0.70808494,6.6355653,7.1028185,0.017837446,-0.007029413,0.023738872
-0.65363663,6.9729795,6.3625107,-0.01313141,-0.012758166,0.045284532,-0.69447285,6.7199187,6.917742,0.010095232,-0.008461601,0.029125288
-0.27297494,9.982363,7.551181,0.040333796,-0.0075221816,-0.21948169,-0.068243735,2.4955907,1.8877952,0.010083449,-0.0018805454,-0.054870423
-1.8458979,6.3409376,9.703476,0.05737984,-0.09804652,-0.11802,-0.5126573,3.4569273,3.8417153,0.021907547,-0.025922038,-0.07065782
-1.1779442,12.289076,6.789858,0.018051775,0.02569722,0.048193406,-0.67897904,5.6649647,4.578751,0.020943604,-0.013017223,-0.040945012
-1.4448864,9.545439,8.488471,0.08303613,-0.27990967,-0.07648118,-0.87045586,6.635083,5.556181,0.036466736,-0.07974033,-0.049829055
-1.1372447,11.412835,13.30899,0.11602285,0.0265699,0.6461427,-0.9371531,7.829521,7.494383,0.056355763,-0.053162772,0.124163896
-1.8686417,4.434038,10.0554085,-0.07229802,0.014876195,-0.0917237,-1.1700252,6.9806504,8.13464,0.024192318,-0.03615303,0.070191994
-0.7446124,10.524626,6.886819,-0.0028921561,0.038263585,0.041095737,-1.0636721,7.8666444,7.8226843,0.0174212,-0.017548876,0.06291793
-1.4951622,4.0737257,9.029537,-0.020345438,0.1335585,0.14529182,-1.1715446,6.9184146,8.124397,0.007979541,0.020227967,0.083511405
0.63319147,1.9465694,9.922536,-0.048328854,0.15345526,-0.04320359,-0.7203605,5.675453,8.573932,-0.006097558,0.05353479,0.051832657
-1.8135774,4.657886,4.29401,0.030094538,0.080733225,-0.062460378,-0.99366474,5.4210615,7.503951,0.0029504662,0.0603344,0.023259398
-1.3191961,0.73874664,10.948408,-0.09399829,0.09649935,-0.081193544,-1.0750476,4.2504826,8.365066,-0.021286722,0.069375634,-0.0028538369
0.05262249,16.882154,7.2926183,0.06942258,0.0034152009,-0.21034779,-0.7931301,7.4084005,8.096953,0.0013906024,0.052885525,-0.054727323
0.42610192,12.117897,-0.7766912,-0.12425065,-0.004904194,0.07344248,-0.48832208,8.585774,5.878542,-0.030019712,0.038438097,-0.022684872
-1.2868757,7.9497724,9.727418,0.05388916,-0.016539695,-0.02412134,-0.6879605,8.426774,6.840761,-0.009042494,0.02469365,-0.02304399
-1.3108169,5.039745,6.4582753,0.082105294,-0.054878745,0.020268168,-0.8436746,7.5800166,6.7451396,0.013744453,0.0048005506,-0.0122159505
0.76247275,1.2498868,7.729542,-0.0866679,-0.063023604,0.06762473,-0.44213778,5.997484,6.99124,-0.0113586355,-0.012155488,0.00774422
0.08254874,4.2353277,5.8394003,-0.10144498,-0.040334344,0.0697773,-0.31096613,5.556945,6.70328,-0.033880223,-0.019200202,0.02325249
0.34709665,-1.2519464,9.112133,-0.03506436,0.07363557,-0.046170652,-0.14645043,3.854722,7.3054934,-0.034176257,0.00400874,0.005896706
0.7528964,-6.7392206,18.511364,-0.044663664,-0.014619847,-0.061355013,0.07838628,1.2062364,10.106961,-0.03679811,-6.48E-04,-0.010916224
-0.18559036,4.3897476,3.7960374,-0.17631955,0.093706824,0.07076632,0.012392119,2.0021143,8.52923,-0.071678475,0.022940401,0.009504413
1.5034463,-2.766214,13.11746,0.032887056,0.051993497,-0.03348793,0.38515568,0.81003225,9.676288,-0.04553709,0.030203674,-0.0012436733
0.81753707,3.1340425,13.048032,0.017993601,0.053971533,-0.027030218,0.49325103,1.3910348,10.519224,-0.029654419,0.03614564,-0.0076903095
-1.3072257,4.4160824,5.895662,0.18874484,0.090390705,-0.12936461,0.04313183,2.1472967,9.363334,0.024945395,0.049706906,-0.038108885
-2.6670737,5.063686,7.747497,-0.023603376,0.05589139,-0.1813172,-0.63441956,2.876394,8.959374,0.012808202,0.05125303,-0.07391097
-0.4764733,8.295719,5.711316,0.0494095,-0.005893211,0.05971257,-0.594933,4.231225,8.14736,0.021958526,0.03696647,-0.04050508
-0.8978347,7.0926847,7.5380135,0.01683005,-0.040276166,0.046099015,-0.6706584,4.94659,7.9950233,0.020676408,0.01765581,-0.018854057
-1.9632086,6.8748217,6.63065,-0.031515528,-3.66E-04,-0.02895008,-0.99379593,5.428648,7.6539297,0.007628424,0.013150274,-0.021378063
-0.85713506,7.146552,6.6079063,0.0017038756,-0.022066582,0.0508114,-0.9596307,5.858124,7.3924236,0.006147287,0.0043460596,-0.0033306964
-0.98521936,7.473346,6.263156,0.0036237366,-0.017063309,0.027598538,-0.96602786,6.2619295,7.1101065,0.005516399,-0.0010062824,0.004401612
-0.89544064,6.634215,6.374481,0.012873976,0.008011236,-0.008006146,-0.22386016,1.6585537,1.5936203,0.003218494,0.002002809,-0.0020015365
-0.64406025,6.85926,7.171716,0.006887499,-0.003920988,-0.009472222,-0.32891017,2.9587302,2.9881444,0.004135745,5.22E-04,-0.003869208
-0.6943363,5.327037,7.324939,-0.005696313,0.006952404,0.0068989517,-0.4202667,3.550807,4.072343,0.0016777306,0.0021294956,-0.001177168
0.4859544,7.385962,6.714443,0.014462223,0.018803183,-0.009594396,-0.19371141,4.509596,4.732868,0.0048738536,0.0062979176,-0.003281475
-2.7436848,7.946181,5.4695125,0.023625191,0.015015821,-0.054431867,-0.8312047,5.368742,4.9170294,0.009561688,0.008477394,-0.016069073
-1.9799672,9.492769,6.5923443,0.047815435,-0.10813451,-0.045879763,-1.1183953,6.399749,5.3358583,0.019125124,-0.020675581,-0.023521746
-1.024722,3.2298064,4.923658,0.04854847,0.08514309,0.34934968,-1.094977,5.607263,5.232808,0.026480962,0.0057790875,0.06969611
-2.91606,0.6920618,1.5240376,0.060765766,-0.029577304,-0.24245602,-1.5502478,4.378463,4.3056154,0.03505216,-0.0030600103,-0.008341923
1.0126561,19.22478,10.336715,0.0062766434,-0.056211006,0.078003615,-0.9095218,8.090042,5.8133903,0.027858282,-0.016347758,0.013244461
-0.15326999,7.6660714,4.2844334,0.1089019,0.027721804,-0.18039216,-0.72045887,7.9840493,5.431151,0.048119187,-0.005330368,-0.035164695
1.3693767,18.00379,2.728269,-0.13544399,-0.06989437,-0.2347591,-0.19799995,10.488985,4.75543,0.0022283942,-0.02147137,-0.08506329
0.96238,12.427935,4.0952992,0.19442298,-0.28052056,0.018138867,0.09209502,10.973722,4.5903974,0.05027704,-0.08623366,-0.059262753
-1.5466355,-3.0906143,7.135805,-0.044791654,0.017581455,0.5338309,-0.3175876,7.4576383,5.2267494,0.026509866,-0.060279883,0.089010656
-1.3407431,6.7994075,9.022355,-0.06885971,0.08196659,-0.35399994,-0.5733765,7.2930803,6.1756506,0.0026674718,-0.024718266,-0.021741994
0.34709665,23.641891,3.7697022,-0.09793689,-0.029088616,-0.14386246,-0.3432582,11.380283,5.5741634,-0.022483619,-0.025810853,-0.05227211
-0.3831035,-11.343073,12.601533,0.080191255,0.01843666,0.111112475,-0.3532195,5.6994443,7.331006,0.003185099,-0.014748975,-0.0114259645
1.2568542,15.9712,2.8240333,0.047204543,0.109944195,-0.086196825,0.049298912,8.267384,6.2042627,0.01418996,0.016424317,-0.03011868
-0.28494543,6.38044,7.947405,0.015928287,-0.036418986,-0.06933696,-0.034262173,7.7956476,6.640048,0.014624542,0.0032134913,-0.03992325
-1.8698388,10.764035,0.34614104,0.0034666643,-0.08260037,0.023392305,-0.49315634,8.5377445,5.066571,0.011835072,-0.018239975,-0.024094362
-0.38549757,-0.51695824,4.1695166,-0.044791665,-0.038495928,0.03341048,-0.46624166,6.274069,4.8423076,-0.002321612,-0.023303963,-0.009718152
-0.9947956,-0.9598665,-4.596476,0.07617116,0.0052768914,0.038535934,-0.59838015,4.4655848,2.4826117,0.017301582,-0.016158748,0.0023453701
-0.16643754,7.9629393,8.331657,0.095195256,-0.019390415,0.03469621,-0.4903945,5.3399234,3.944873,0.036775,-0.016966665,0.01043308
-0.6416662,0.75071764,19.087145,-0.15683007,-0.009500221,0.024631482,-0.5282124,4.192622,7.730441,-0.011626266,-0.015100054,0.01398268
-0.29571888,7.5786867,9.403016,0.10107119,-0.013398121,0.012123303,-0.47008905,5.0391383,8.148584,0.016548097,-0.014674571,0.013517835
1.2652335,4.438826,22.855457,0.073436834,0.04844466,0.02038452,-0.0362584,4.88906,11.825302,0.030770281,0.0011052368,0.015234507
-2.1667073,-0.26078963,16.869015,-0.088704094,0.06874864,-0.02243419,-0.5688706,3.6015975,13.08623,9.02E-04,0.018016089,0.0058173323
-0.27776316,6.4570513,5.335443,-0.044430956,0.038321763,-0.016616428,-0.49609375,4.315461,11.148534,-0.010431473,0.023092508,2.09E-04
0.07536638,-0.9885955,18.161827,0.05679805,-0.026895318,-2.10E-04,-0.35322872,2.989447,12.901857,0.006375908,0.010595552,1.04E-04
-1.04986,6.6605496,7.8624134,0.031607147,0.123202875,-0.08608047,-0.52738655,3.9072227,11.641996,0.0126837175,0.03874738,-0.021442058
0.76127565,19.971737,10.510286,0.13801397,-0.0977556,-0.14984311,-0.205221,7.9233513,11.359069,0.04401628,0.004621636,-0.053542323
-0.6093458,-2.5854592,12.277132,0.034225155,-0.0502827,0.06011982,-0.30625218,5.296149,11.588585,0.0415685,-0.009104448,-0.025126789
0.4835603,6.472613,3.9468656,0.10398009,-0.07378646,0.16152336,-0.10879907,5.590265,9.678155,0.057171397,-0.025274951,0.021535747
-0.9672635,4.937996,6.0524755,-0.013015056,0.03523835,-0.0904438,-0.3234152,5.4271975,8.771735,0.039624784,-0.010146625,-0.0064591393
-1.224629,6.1613803,7.837276,0.040159266,-0.005078721,-0.0062026423,-0.5487187,5.610743,8.53812,0.039758407,-0.008879649,-0.006395015
0.28963828,6.6581554,6.453487,-0.021683516,-0.040159814,0.03190368,-0.33912945,5.8725963,8.016962,0.024397926,-0.01669969,0.0031796591
-0.6500455,7.3261094,6.093175,0.0018202323,-0.008045781,0.020617228,-0.41685846,6.2359743,7.5360155,0.018753503,-0.014536213,0.0075390516
0.5170777,7.0388174,7.310574,4.24E-04,-0.0014135353,-0.009227875,-0.18337443,6.436685,7.4796553,0.014171119,-0.011255544,0.00334732
-0.3112805,6.8760185,7.4087324,2.49E-04,0.011152823,-0.020281618,-0.21535096,6.5465183,7.4619246,0.010690698,-0.005653452,-0.0025599147
-1.2844818,6.4355044,6.1997128,-0.004230238,0.012200021,0.04045579,-0.32112044,1.6088761,1.5499282,-0.0010575595,0.0030500053,0.010113947
1.2281249,7.2363305,6.6605763,-0.0036484627,0.041696068,0.117831975,0.0661909,3.0157397,2.8275902,-0.0017052853,0.01271152,0.037043452
0.12324841,7.435041,6.755143,0.0091506075,0.031107742,-0.060307804,0.08045527,4.120565,3.8094785,0.0010086879,0.017310575,0.012705639
-0.2574133,6.548027,7.279451,-3.32E-04,0.014759838,0.01701022,-0.0040118694,4.7274303,4.6769714,6.73E-04,0.01667289,0.013781784
0.17831267,7.49609,6.2188654,0.008045234,-0.009151153,0.03661607,0.041569266,5.4195952,5.0624447,0.002516382,0.01021688,0.019490356
0.3925845,7.0950785,6.7120495,0.0036819135,-0.010081995,0.012065125,0.12932308,5.838466,5.474846,0.0028077648,0.0051421607,0.017634047
-0.083841115,7.8145056,6.5588274,-0.0036484618,-0.0036242832,-0.004515491,0.07603203,6.332476,5.745841,0.0011937082,0.0029505496,0.012096662
0.6296003,6.476204,6.9801884,0.001994764,0.017436005,0.12021726,0.21442409,6.368408,6.054428,0.0013939721,0.0065719136,0.039126813
0.95040953,7.6768446,5.4982414,0.006707149,-0.004089704,0.1299911,0.39842045,6.6955175,5.9153814,0.0027222664,0.0039065094,0.061842885
-0.061097234,9.1994915,8.130553,0.028814632,0.06950497,0.294401,0.28354102,7.3215113,6.4691744,0.0092453575,0.020306123,0.11998241
-0.60575473,8.154468,7.0244794,0.05947423,0.16805781,0.3542075,0.061217085,7.5297503,6.6080008,0.021802574,0.057244048,0.17853868
0.60326517,8.426198,7.679265,0.10840159,0.23059872,0.09363011,0.19672911,7.7538624,6.875817,0.04345233,0.10058272,0.15731154
-1.6842961,16.804348,0.85009885,0.061103202,-0.020728495,-0.8576898,-0.2735272,10.016483,5.3693876,0.047865048,0.070254914,-0.09643878
-0.5806166,11.874897,3.4141784,-0.16410227,-0.11800144,-0.17055432,-0.35029954,10.481087,4.880585,-0.0051267818,0.023190826,-0.11496767
-0.83079994,15.614479,-1.7714394,0.26763362,-0.16524164,-0.12325595,-0.47042465,11.764435,3.217579,0.063063316,-0.023917291,-0.11703974
-2.2935944,8.4465475,-7.410739,0.07820737,-0.14645025,0.12882756,-0.9262171,10.934963,0.5604994,0.06684933,-0.054550532,-0.055572916
-0.31606874,5.4682894,-2.5279746,0.07000436,-0.0780916,-0.05803888,-0.77368,9.568295,-0.21161908,0.067638084,-0.060435798,-0.056189407
-1.2138557,17.529758,3.9708066,-0.10383027,-0.06610701,0.055291068,-0.8837239,11.5586605,0.8339873,0.024770997,-0.061853603,-0.028319288
-1.198294,1.5108435,3.1903305,0.021251533,-0.18286945,0.13924134,-0.96236646,9.046706,1.423073,0.023891132,-0.092107564,0.0135708675
-0.29811296,1.3241036,2.863536,0.0108959135,0.032504,0.0066546155,-0.7963031,7.1160555,1.7831888,0.020642327,-0.060954675,0.011841805
-0.7625681,5.3832984,17.903265,-0.12803218,-0.017296012,-0.00346829,-0.78786933,6.682866,5.8132076,-0.016526299,-0.05004001,0.008014281
0.7588816,-3.352768,-0.78866184,-0.09120576,5.65E-04,-0.061238643,-0.40118158,4.173958,4.16274,-0.035196163,-0.037388884,-0.0092989495
1.1934106,3.7888284,8.735063,0.26507378,-0.041032474,-0.04849775,-0.0025335252,4.0776753,5.305821,0.03987132,-0.03829978,-0.01909865
-0.032367975,4.9798927,2.8802943,0.017644534,0.0088839,-0.056293547,-0.009992138,4.30323,4.699439,0.034314625,-0.026503861,-0.028397374
-1.3790486,5.925562,4.2425365,-0.022323478,-0.11980493,-0.13268071,-0.35225624,4.7088127,4.5852137,0.020155098,-0.04982913,-0.054468207
-0.7386272,2.9401205,12.876854,0.039286595,0.08498019,0.3755587,-0.44884896,4.2666397,6.658124,0.024937972,-0.0161268,0.053038523
0.60685635,4.5836697,10.969954,0.0171791,0.1880709,0.21068344,-0.18492264,4.345897,7.736081,0.022998255,0.034922622,0.092449754
-1.2737082,5.698122,6.235624,0.049933106,-0.0427778,-0.17206696,-0.45711905,4.6839533,7.3609667,0.029731967,0.015497517,0.026320577
0.6726941,6.3983955,5.846583,0.004845468,0.04763017,-0.048439577,-0.17466575,5.112564,6.982371,0.023510342,0.02353068,0.007630538
-0.6691983,6.740752,7.060391,-0.0070227617,0.12931152,-0.09108374,-0.2982989,5.5196114,7.001876,0.015877066,0.04997589,-0.017048031
-1.5741677,6.87123,6.1147223,0.006125374,0.10272436,-0.10440641,-0.6172661,5.8575163,6.7800875,0.013439143,0.063163005,-0.038887627
-1.5957146,6.802999,5.1822205,0.0021111206,-0.024975456,-0.021037927,-0.8618782,6.093887,6.380621,0.010607137,0.04112839,-0.034425203
-0.12214671,6.8736243,6.91076,-0.0028863358,0.008540652,-0.015703041,-0.03772791,3.0036197,3.0355775,-7.22E-04,0.002135163,-0.0039257603
-0.10059981,6.342135,7.356062,4.58E-05,-0.013206132,-0.07226912,-0.053445887,3.8382485,4.115699,-5.30E-04,-0.0017001608,-0.021011598
-0.8978347,5.786704,7.090317,2.90E-04,-0.012473093,-0.14874938,-0.2645431,4.325362,4.859353,-3.25E-04,-0.004393394,-0.052946046
-0.57223725,7.29738,7.54759,0.002367104,0.0043867696,-0.031096831,-0.34146664,5.0683665,5.531412,3.48E-04,-0.0021983532,-0.047483742
0.28963828,7.6971946,3.963624,0.026435174,-0.012839612,-0.24917552,-0.1836904,5.7255735,5.1394653,0.006869948,-0.004858668,-0.09790669
-0.07426475,9.404187,3.496775,0.011285726,-0.3142403,-0.9186833,-0.15633398,6.645227,4.7287927,0.007973893,-0.08220407,-0.30310082
-0.6464543,6.0739956,5.4551477,0.19405648,-0.060975764,0.5816005,-0.27886406,6.502419,4.9103813,0.054494537,-0.076896995,-0.0819255
-0.3759212,12.1621895,2.1465032,0.08483384,0.067916706,0.6055465,-0.30312833,7.9173617,4.219412,0.062079363,-0.04069357,0.0899425
-0.32085693,5.0972033,0.99254775,0.079336025,-0.09103029,0.16877809,-0.30756047,7.212322,3.412696,0.066393524,-0.05327775,0.1096514
-0.4668969,10.4216795,5.22292,-0.02939787,-0.016626969,0.31526345,-0.3473946,8.014662,3.865252,0.042445675,-0.044115055,0.16105442
6.837498,26.474112,-1.8037596,0.16791143,0.11556417,0.18502711,1.4488286,12.629524,2.447999,0.07381211,-0.0041952506,0.16704759
1.2520659,5.185785,-0.7288093,-0.18467966,0.2859954,0.026446622,1.3996379,10.768589,1.6537969,0.009189174,0.06835241,0.13189735
-1.242585,10.984292,-3.9991484,-0.0072845784,0.078057066,-0.075445615,0.7390822,10.822515,0.24056053,0.0050707357,0.07077857,0.08006161
1.9176253,12.569186,4.0402355,-0.20324999,0.11531982,-0.045146722,1.033718,11.259182,1.1904793,-0.047009446,0.08191388,0.048759524
-1.0175396,17.158672,-2.9337745,-0.09940299,0.12582667,-0.0596853,0.5209036,12.734055,0.15941584,-0.06010783,0.09289208,0.021648318
1.0126561,15.023137,8.818857,0.15166244,-0.028844263,-0.058830094,0.64384174,13.306325,2.324276,-0.0071652643,0.062457994,0.0015287139
0.0669871,-0.0189856,7.0687704,-0.10404555,0.016115375,0.101216465,0.49962807,9.9749975,3.5103996,-0.031385336,0.05087234,0.026450653
0.48116618,2.3511724,15.254194,-0.33531892,-9.89E-04,-0.053821005,0.49501258,8.069041,6.446348,-0.10736874,0.037907045,0.0063827373
-0.49323195,1.2666454,10.609642,0.014095709,-0.011617884,0.019360594,0.24795145,6.3684425,7.4871716,-0.07700263,0.025525812,0.009627202
0.93604493,-1.3788338,3.7744904,0.0033444823,0.037984334,-0.039404593,0.4199748,4.4316235,6.5590014,-0.05691585,0.028640442,-0.002630747
-0.07905294,7.4577847,-0.3481476,-0.006307184,-0.005387064,-0.011671335,0.29521787,5.1881638,4.8322144,-0.044263683,0.020133566,-0.004890894
1.9152313,-8.221168,14.82565,-3.21E-04,-0.044971094,-0.01826867,0.70022124,1.8358309,7.330573,-0.03327794,0.0038574003,-0.008235338
-0.1269349,3.1867127,16.719383,-0.026099194,0.018681008,0.1327371,0.49343222,2.1735513,9.677775,-0.031483255,0.0075633023,0.02700777
0.08853397,2.7749276,8.524382,0.0063988077,0.11483112,0.24220403,0.39220765,2.3238955,9.389427,-0.02201274,0.034380257,0.08080684
0.33033794,6.1937003,7.396762,0.10877973,-0.04668152,-0.05369883,0.37674022,3.2913465,8.891261,0.010685377,0.014114812,0.04718042
2.3030756,6.2798877,7.9114933,-5.65E-04,-0.072826535,0.08276835,0.85832405,4.0384817,8.646319,0.007872771,-0.0076205246,0.056077406
2.2312524,7.5008783,7.60026,0.003466657,-0.004165336,-0.009960913,1.2015562,4.904081,8.384805,0.0067712422,-0.0067567276,0.03956783
0.51468354,6.634215,7.2722683,0.01739437,0.06535107,-0.064083524,1.0298381,5.3366146,8.10667,0.009427024,0.011270222,0.01365499
0.51228946,7.055576,7.8109407,-0.012171479,-0.015649594,-0.019123886,0.90045094,5.766355,8.032738,0.0040273983,0.0045402683,0.0054602716
-0.24663983,6.8975654,6.9083652,-0.0017867791,-0.017645082,-0.0043409583,-0.06165996,1.7243913,1.7270913,-4.47E-04,-0.0044112704,-0.0010852396
0.050228402,7.055576,6.8556952,0.010186169,-0.008441387,-0.067382194,-0.033687867,3.0571876,3.0092423,0.0022115214,-0.0054187994,-0.01765948
-0.588996,7.103458,6.867666,-0.0019089514,8.44E-04,-0.08827377,-0.17251489,4.068755,3.973848,0.0011814032,-0.0038531602,-0.035313055
-1.8075923,9.588533,5.0649095,-0.0118049625,-0.01100702,-0.039160244,-0.5812842,5.4487,4.2466135,-0.0020651883,-0.0056416253,-0.03627485
-0.20354606,9.198296,5.972273,0.05783362,-0.035197258,-0.009472222,-0.48684967,6.386099,4.678028,0.012909514,-0.013030534,-0.029574193
0.21422416,6.977768,2.701934,-0.015633052,0.043305643,0.051315606,-0.3115812,6.534016,4.184005,0.005773872,0.0010535102,-0.009351743
0.54820096,15.324793,1.1852727,0.052725624,-0.06215094,-0.2560754,-0.096635655,8.73171,3.4343219,0.017511811,-0.014747603,-0.07103266
-1.509527,18.471836,7.8672023,0.03300342,-0.12835702,-0.15345012,-0.4498585,11.166742,4.542542,0.021384712,-0.043149956,-0.09163702
-1.653173,5.4036484,1.9753252,-0.016912948,-0.101129934,0.116842955,-0.7506871,9.725969,3.9007378,0.011810297,-0.05764495,-0.03951703
0.7289554,12.104731,2.454145,-0.0064991703,-0.04882828,0.1380196,-0.3807765,10.32066,3.5390897,0.0072329305,-0.055440784,0.004867129
1.4639438,14.065496,1.0619766,0.094148085,-8.90E-04,0.10701097,0.080403596,11.256868,2.9198112,0.028961718,-0.041803073,0.030403089
0.84985745,6.562392,15.060272,0.14749692,0.019763108,0.13889226,0.27276707,10.083249,5.9549265,0.05859552,-0.026411528,0.05752538
0.0071346164,11.258417,3.0179548,-0.059324414,0.10190985,0.07303524,0.20635895,10.377041,5.2206836,0.029115535,0.005668817,0.061402846
0.7002262,15.153616,0.6920881,-0.010397072,0.1563641,-0.10318468,0.32982576,11.571184,4.088535,0.019237384,0.043342635,0.020255964
-0.6057547,11.121954,-1.8181242,0.15983054,0.12186478,-0.14961042,0.09593065,11.458877,2.61187,0.054385673,0.06297317,-0.022210632
-3.1494846,23.122372,-4.354672,-0.30233222,-0.038705375,-0.014929279,-0.71542317,14.37475,0.8702345,-0.034793798,0.037553534,-0.020390293
-0.6093458,7.532002,9.489203,0.07768381,-0.052086227,0.08344903,-0.6889038,12.664063,3.0249767,-0.0066743977,0.015143594,0.005569538
1.4567614,1.1792607,21.88465,-0.0752069,-0.012932697,-0.014754748,-0.15248752,9.792863,7.739895,-0.023807522,0.008124521,4.88E-04
2.4562976,15.7892475,21.253805,0.0071725636,-0.02869882,0.010785217,0.49970877,11.291959,11.118372,-0.0160625,-0.0010813139,0.0030626543
-0.5219612,1.7215242,3.9420772,0.17012802,-0.0071731135,-0.02388863,0.24429128,8.89935,9.324298,0.030485129,-0.0026042638,-0.003675167
-0.092220485,-10.586538,2.874309,-0.122388944,-0.019855829,0.13964859,0.16016334,4.027878,7.7118006,-0.007733388,-0.0069171553,0.03215577
0.71099967,5.042139,10.48874,-0.01348049,0.007080395,-0.13983656,0.29787242,4.281443,8.406035,-0.009170163,-0.0034177678,-0.010842312
0.28724417,-5.362614,12.901993,0.019273505,-0.14336687,-0.20429733,0.29521537,1.8704288,9.530025,-0.0020592464,-0.038405042,-0.05920607
-0.7685534,2.9712436,6.150633,0.042137302,0.09283416,0.34833163,0.029273182,2.1456325,8.685177,0.008989891,-0.0055952407,0.042678356
0.7864138,3.6236355,11.525385,-0.006731873,-0.05644953,-0.06461294,0.21855834,2.5151334,9.395229,0.00505945,-0.018308813,0.015855532
-1.729784,6.2092624,5.978258,0.10200204,0.0296533,-0.05571178,-0.26852724,3.4386656,8.540987,0.029295098,-0.006318284,-0.0020362958
-0.076658845,6.419943,5.825036,8.31E-04,-0.008278495,0.05168406,-0.22056013,4.1839848,7.8619995,0.022179127,-0.006808337,0.011393793
0.93484783,6.8448954,7.395565,6.57E-04,0.005102354,0.028762095,0.06829184,4.8492126,7.745391,0.016798515,-0.003830664,0.015735868
0.24893859,7.2399216,6.8126016,0.006648972,-0.0128745185,-0.0059117517,0.11345353,5.44689,7.5121937,0.014261129,-0.0060916278,0.010323963
0.3195645,7.1585226,5.744834,0.14819506,-0.016888773,-0.01684914,0.16498128,5.874798,7.0703535,0.047744613,-0.008790914,0.0035306877
-0.21431953,7.182463,6.916745,1.33E-04,0.00597502,-0.0120204,-0.05357988,1.7956158,1.7291863,3.33E-05,0.001493755,-0.0030051
-0.22269887,6.8413043,7.046026,0.007230746,-0.0037988166,0.011017927,-0.09585963,3.0570378,3.0583963,0.0018326391,1.71E-04,5.01E-04
0.080154635,6.9179153,6.8114047,6.57E-04,0.0044042245,-0.01946713,-0.051856063,4.0222573,3.9966483,0.0015386492,0.0012290152,-0.00449129
-0.32923627,8.836786,5.1558857,0.0049618236,0.011211005,-0.04273817,-0.12120111,5.2258897,4.2864575,0.002394443,0.0037245126,-0.014053009
-0.9935986,8.039551,5.62872,0.028349213,0.018017776,-0.03406971,-0.33930048,5.929305,4.622023,0.008883135,0.007297829,-0.019057184
-0.0120181665,7.8743577,6.2547765,-0.0014958889,0.020170353,-0.07589939,-0.2574799,6.4155684,5.0302114,0.0062883794,0.01051596,-0.033267736
-0.3328274,9.740559,1.9406108,0.047315095,-0.08699278,-0.39459625,-0.27631676,7.2468157,4.2578115,0.016545057,-0.013861224,-0.123599865
0.4237078,8.537523,8.256243,0.11177588,-0.19997367,0.05290578,-0.10131061,7.5694923,5.2574196,0.04035276,-0.060389336,-0.07947345
-1.0546482,9.1671715,6.453487,0.04277725,-0.01351448,0.4002842,-0.339645,7.968912,5.5564365,0.040958885,-0.04867062,0.040465966
0.20584482,14.265405,13.007333,-0.05088867,-0.026371725,0.09578268,-0.20327255,9.5430355,7.419161,0.017996997,-0.043095894,0.054295145
-2.0805197,6.4809923,-0.5696018,0.073378675,-0.0433014,0.0028148843,-0.6725843,8.777525,5.4219704,0.031842418,-0.04314727,0.04142508
1.6554717,11.113574,9.071434,0.1628558,-0.006125923,0.25524744,-0.09057033,9.361537,6.3343363,0.06459577,-0.03389193,0.09488067
2.872871,25.62181,6.360117,-0.10086323,0.061243728,0.1315037,0.65029,13.426605,6.340781,0.023231015,-0.010108016,0.10403643
-0.53393173,13.213199,14.784951,0.21317941,0.1571786,-0.16200225,0.35423458,13.373254,8.451824,0.07071811,0.031713635,0.037526757
1.9236107,7.357233,10.104488,-0.16532397,-0.04568665,-0.044483494,0.7465786,11.869248,8.86499,0.011707589,0.012363564,0.017024193
2.22407,20.733063,7.5140724,-0.14112213,-0.02259016,0.059072617,1.1159514,14.085202,8.527261,-0.026499841,0.003625133,0.0275363
0.25013566,14.009236,0.4838017,0.18938476,0.073170125,-0.08212438,0.8994975,14.066211,6.516396,0.027471308,0.021011382,1.21E-04
-0.24424574,1.6377307,-0.41278827,0.06046322,0.03762363,0.06605393,0.6135617,10.959091,4.7841,0.035719287,0.025164444,0.016604327
0.26809138,2.9963818,7.500905,0.03009453,0.06351266,-0.037327655,0.52719414,8.968414,5.463301,0.034313098,0.034751497,0.0031213313
1.1742578,-9.846762,30.167034,-0.1941801,0.013479949,0.039990377,0.6889601,4.2646203,11.639235,-0.022810202,0.02943361,0.012338593
-0.28374842,0.9530184,11.104025,0.09025015,-0.1413888,-0.023655917,0.44578296,3.43672,11.505432,0.0054548867,-0.013271993,0.003339965
-0.13651131,15.22903,1.2367456,0.26222312,0.0190068,-0.102312,0.3002094,6.384797,8.938261,0.06964694,-0.0052022953,-0.023073025
-0.16763455,1.2869953,10.965166,-0.18964224,-0.072797425,0.02451513,0.18324842,5.110347,9.444987,0.004824646,-0.022101078,-0.011175986
0.47757497,-3.613725,22.661533,0.0052527,-0.046384815,0.07472239,0.25683004,2.929329,12.749124,0.0049316594,-0.028172012,0.010298606
-1.411369,0.672909,8.87392,-0.20069596,0.014178061,0.0088653555,-0.16021973,2.365224,11.780323,-0.046475247,-0.017584495,0.009940294
1.1730607,3.9839475,15.023163,-0.11127699,0.009291147,0.1445355,0.17310035,2.7699049,12.591033,-0.062675685,-0.010865585,0.043589093
0.3099881,2.6540256,7.6265955,0.02834921,0.07648627,0.17845304,0.2073223,2.740935,11.349924,-0.039919462,0.010972378,0.07730508
-0.108979166,1.5994252,11.781553,-0.030701043,0.029595122,-0.27527404,0.12824693,2.4555576,11.457831,-0.037614856,0.015628064,-0.010839701
0.36744648,4.7847733,8.047956,0.014619306,-0.07646262,-0.35061398,0.18804681,3.0378616,10.605363,-0.024556316,-0.0073946062,-0.09578327
-1.41496,5.771142,5.597596,0.061684966,0.056007747,-0.0881167,-0.2127049,3.7211816,9.353421,-0.0029959958,0.008455982,-0.09386663
-0.044338465,6.846092,5.4563446,0.09769692,0.0706685,0.113410495,-0.17061329,4.5024095,8.379152,0.022177234,0.024009112,-0.04204735
0.28963825,7.237528,8.220331,0.0036819181,-0.02264836,-0.08276434,-0.055550404,5.186189,8.339447,0.017553406,0.012344744,-0.0522266
-1.1803384,6.4319134,7.132214,3.08E-04,0.0071967486,-0.022259654,-0.33674738,5.49762,8.037639,0.013241958,0.011057746,-0.04473486
-0.5554785,6.4450808,7.380003,0.0022856514,-0.038007237,-0.08130991,-0.13886963,1.6112702,1.8450007,5.71E-04,-0.009501809,-0.020327477
-0.44056183,7.050788,6.700079,-0.0020311256,-0.014672209,-0.045268897,-0.21429268,2.9711497,3.0587702,-7.92E-05,-0.010794409,-0.026562832
-0.95289904,7.0675464,7.4326735,-0.0049632755,0.013916262,-0.027920336,-0.39894426,3.9952488,4.152246,-0.0013002353,-0.004616741,-0.026902208
0.49074256,7.8288703,5.5940056,0.02606865,-0.0035544673,0.042084757,-0.17652255,4.9536543,4.512686,0.005541986,-0.0043511726,-0.009655466
-0.8451645,9.373064,5.028998,0.048059784,0.006952407,-0.004463133,-0.34368303,6.058507,4.6417637,0.016171435,-0.0015252777,-0.008357383
-1.0797863,9.013949,4.703401,0.050869763,-0.08455513,-0.03390681,-0.5277089,6.7973676,4.657173,0.024846017,-0.02228274,-0.01474474
-1.4317188,6.7084317,9.505963,0.012140933,-0.09738329,0.05552378,-0.75371134,6.7751336,5.8693705,0.021669745,-0.041057877,0.0028223898
0.22260351,11.077662,3.1065369,0.048792817,0.09467257,0.2734803,-0.50963265,7.8507657,5.1786623,0.028450513,-0.007125266,0.070486866
0.96238,13.895516,6.453487,0.002855793,0.014160606,0.0026229015,-0.14162949,9.361954,5.4973683,0.022051834,-0.0018037977,0.053520873
0.6272062,7.065152,5.419236,-0.08584176,0.15319343,-0.047223665,0.05057943,8.787753,5.477835,-0.004921565,0.03694551,0.028334739
-0.009624079,3.7852373,9.48681,0.03901897,0.09149608,-0.19248728,0.03552855,7.537124,6.4800787,0.0060635693,0.050583154,-0.026870767
0.9456213,15.669543,-0.8054204,-0.115651965,-0.08687642,-0.05883009,0.26305175,9.570229,4.658704,-0.024365313,0.01621826,-0.034860596
-0.44535005,15.437316,0.56400406,-0.18272492,-0.05156844,0.13884574,0.0859513,11.037001,3.6350288,-0.06395522,-7.28E-04,0.008565988
-1.1779443,-2.769805,12.218477,-0.074479684,0.044948194,0.07763709,-0.23002261,7.5852995,5.780891,-0.06658633,0.0106907375,0.025833763
0.37343174,9.152807,3.163995,-0.1490052,-0.11399881,-0.06848175,-0.07915902,7.9771767,5.126667,-0.087191045,-0.02048165,0.0022548847
-1.9320854,8.855938,3.8678603,0.0636979,-0.06793962,0.13933444,-0.5423906,8.196867,4.8119655,-0.049468808,-0.03234614,0.036524773
-2.0565784,13.562737,2.8120627,-0.113941565,0.0684054,-0.09499328,-0.92093754,9.538335,4.31199,-0.065587,-0.007158257,0.00364526
-1.2641319,4.726118,2.5415294,0.07078396,-0.05926533,-0.12236002,-1.0067362,8.33528,3.8693748,-0.03149426,-0.020185025,-0.02785606
0.9958974,12.858872,9.987177,0.10193805,-0.06561833,0.06822977,-0.50607777,9.466179,5.398825,0.0018638149,-0.03154335,-0.0038346015
1.0318089,9.442493,-5.983856,-0.06947059,-0.04228329,0.068474114,-0.12160611,9.460258,2.553155,-0.015969787,-0.034228336,0.014242578
0.54341274,9.030708,-3.5227227,0.066996574,0.01477147,-0.053454485,0.044648603,9.35287,1.0341855,0.0047718026,-0.021978386,-0.0026816875
1.8721374,13.364026,10.154764,-0.0059406813,0.0295544,-0.057241842,0.5015208,10.3556595,3.31433,0.0020936816,-0.009095189,-0.016321726
0.9312568,2.849145,12.445916,0.11378882,-0.0028214338,-0.013137409,0.6089548,8.479031,5.5972266,0.030017467,-0.00752675,-0.0155256465
0.19866252,0.8764074,16.949215,-0.19714133,-0.08235602,0.035609595,0.50638175,6.578375,8.435224,-0.026772233,-0.026234068,-0.002741836
0.92168033,3.2633238,9.355135,-4.43E-04,0.004508946,0.017650172,0.61020637,5.749612,8.665201,-0.020189896,-0.018548314,0.002356166
-0.21791066,-1.3884101,9.635244,-0.050167266,-0.06500746,0.048315585,0.4031771,3.9651065,8.907712,-0.027684238,-0.030163102,0.013846021
0.22260351,2.0040278,16.51349,-0.029886577,0.033586107,0.074949294,0.35803372,3.4748368,10.809156,-0.028234823,-0.0142258,0.029121839
1.6590627,-7.48618,13.726759,-0.059452422,0.055088546,-0.022178208,0.68329096,0.73458266,11.538557,-0.036039222,0.0031027868,0.016296826
-0.25382215,-0.38288862,16.877394,-0.0924391,0.03334176,0.059677657,0.4490127,0.45521486,12.873266,-0.050139192,0.010662531,0.027142033
0.6248121,2.937726,13.051623,0.07444913,0.07145972,0.037320018,0.49296254,1.0758426,12.917855,-0.018992111,0.025861828,0.02968653
-0.23227523,3.8690305,8.806886,-0.17270674,0.0145271225,-0.10000238,0.31165308,1.7741396,11.890113,-0.057420768,0.023028152,-0.0027356967
0.6367826,3.6272268,11.2536545,-0.007895428,-0.025667772,-0.09364938,0.39293545,2.2374115,11.730998,-0.045039434,0.010854172,-0.025464118
-0.21072836,3.5937095,7.7726355,0.011896592,-0.0118622305,-0.12797998,0.2420195,2.576486,10.741407,-0.030805428,0.005175071,-0.051093083
-0.8834701,7.1657043,4.3371034,0.114399694,0.0814779,-0.11539617,-0.039352894,3.7237906,9.140331,0.0054958537,0.02425078,-0.067168854
-1.7142224,6.8496833,7.2387514,0.088132516,0.064618036,0.0654198,-0.45807028,4.505264,8.664936,0.02615502,0.034342594,-0.03402169
-1.1085154,6.955024,6.721626,0.0037110033,-0.035441607,0.019116245,-0.6206815,5.117704,8.179109,0.020544015,0.016896544,-0.020737207
-0.62251335,6.749131,6.331388,0.027412556,-0.050591055,0.037930876,-0.62113947,5.525561,7.7171783,0.02226115,2.46E-05,-0.0060701855
-0.8260117,7.0603642,7.3009977,5.35E-04,0.019902736,-0.0407485,-0.67235756,5.9092617,7.6131334,0.01682949,0.0049941675,-0.014739764
-0.02159456,6.684012,7.1358056,-0.0034135375,-0.0034665177,0.007238552,0.027271867,2.9250631,3.129187,-8.53E-04,-8.67E-04,0.001809638
0.1450347,6.5724473,7.219119,-0.0036578844,-0.0051769377,0.004795091,0.056712575,3.8369093,4.15167,-0.0015545094,-0.0019442064,0.0025560013
0.115347885,6.6916733,7.2957306,-0.0012144251,-0.0073760515,0.010903738,0.07137141,4.5506,4.937685,-0.0014694883,-0.0033021676,0.0046429355
0.3317744,6.835798,7.1765046,0.0056272596,-0.0032221712,0.06808067,0.13647217,5.1218996,5.49739,3.05E-04,-0.0032821684,0.02050237
0.12253018,7.468319,6.9940743,0.038369607,0.05737561,0.21395518,0.13298666,5.7085047,5.871561,0.009820926,0.011882275,0.06886557
1.196044,7.0665894,6.6062303,0.015156749,0.29170328,0.9631196,0.398751,6.048026,6.055228,0.011154882,0.08183753,0.2924291
2.340423,7.192997,6.487962,0.05083125,0.34252727,0.795254,0.884169,6.3342686,6.1634116,0.021073975,0.14700997,0.41813532
2.5606804,6.83101,6.4534864,0.06353723,0.17954855,0.07663278,1.3032968,6.458454,6.2359304,0.03168979,0.15514462,0.33275968
2.4931667,7.1666627,6.317502,0.08406229,0.23232727,-0.22073616,1.6007643,6.635506,6.2563233,0.044782914,0.17444028,0.19438572
1.2951598,7.205926,6.4343348,0.009781138,0.11626297,-0.75609803,1.5243632,6.778111,6.300826,0.036032468,0.15989596,-0.043235213
-0.05128137,7.1446366,7.175547,0.020043667,-0.23681681,-1.0805893,1.130452,6.8697424,6.5195065,0.03203527,0.06071776,-0.30257374
-1.6356958,7.056534,6.227005,0.122180246,-0.3013242,-0.75731975,0.43891507,6.91644,6.446381,0.054571513,-0.029792726,-0.41626024
-1.9383103,6.8070693,7.3129683,0.13757405,-0.30718845,-0.19410247,-0.15539128,6.889097,6.663028,0.07532215,-0.09914166,-0.3607208
-1.4973171,7.2724814,6.681884,0.1463705,-0.17841816,0.14309487,-0.49087274,6.9849434,6.667742,0.09308424,-0.11896078,-0.2347669
-0.5564362,7.9327745,6.6584215,0.032994,-0.1273499,0.09398133,-0.5072636,7.221901,6.665412,0.07806168,-0.12105806,-0.15257984
-0.5612244,7.406072,6.456839,0.06891285,-0.12417339,-0.10027364,-0.5207538,7.267944,6.613269,0.07577447,-0.12183689,-0.1395033
-0.5085542,8.333547,5.3833246,0.023220163,-0.12490642,-0.0521375,-0.5177039,7.5343447,6.305783,0.06263589,-0.12260427,-0.11766185
-0.72019255,6.9569397,7.2195983,0.05351905,-0.14445409,0.040225245,-0.56832606,7.3899937,6.534237,0.06035668,-0.12806673,-0.07819007
0.044003773,7.5822783,6.564573,-0.003657885,0.040271394,0.121103734,-0.4152436,7.4380646,6.541821,0.044353038,-0.0859822,-0.028366622
0.20680246,7.951927,6.230836,-0.030780278,0.078878045,-0.053603582,-0.25973207,7.56653,6.4640746,0.025569709,-0.04476714,-0.034675863
-0.40369272,7.43145,6.506157,0.014912403,-0.03181064,-0.06924171,-0.29572225,7.53276,6.474595,0.022905383,-0.041528016,-0.043317325
-0.16715576,7.5152435,5.5403776,0.0056272587,-0.050136585,-0.002290938,-0.26358062,7.528381,6.2410407,0.018585853,-0.043680158,-0.03306073
-0.312717,7.149904,6.800153,0.04741041,-0.0051769386,-0.05140446,-0.27586472,7.4337616,6.380819,0.025791992,-0.034054354,-0.037646662
-0.06373073,7.7948737,6.1250167,0.023220163,-0.014462082,-0.0047343974,-0.22283122,7.5240397,6.3168683,0.025149034,-0.029156286,-0.029418595
-0.23658462,7.1944337,6.850908,-0.073296465,0.011194238,-0.0010692086,-0.22626957,7.441638,6.4503784,5.38E-04,-0.019068655,-0.022331249
-0.103951596,8.176494,5.5418143,-0.023938596,-0.019349,0.009682013,-0.19569008,7.625352,6.2232375,-0.005581404,-0.01913874,-0.014327934
-0.38741282,6.8760185,6.954332,-0.017585594,-0.022036804,-0.004734398,-0.24362077,7.438019,6.406011,-0.008582451,-0.019863255,-0.01192955
-0.17242278,7.3677673,6.5664887,0.07697626,-0.012996007,0.018234117,-0.22582127,7.420456,6.4461308,0.012807227,-0.018146444,-0.004388633
0.010486379,5.3830585,8.797789,-0.15808448,-0.013484698,-0.026481183,-0.16674435,6.9111066,7.034045,-0.029915698,-0.016981008,-0.009911771
0.06986001,3.5908363,7.8636107,-0.12876298,-0.024480263,0.0025959807,-0.10759326,6.081039,7.2414365,-0.054627515,-0.018855821,-0.006784833
0.26857018,2.7318342,11.766472,0.0036724908,0.054199107,-0.030635057,-0.0135523975,5.2437377,8.372695,-0.040052515,-5.92E-04,-0.012747389
0.05884712,3.6779816,8.94718,0.017355863,-0.014706427,-0.0154856155,0.0045474805,4.8522987,8.516316,-0.02570042,-0.0041206744,-0.013431946
-0.16188878,3.429953,10.424818,-0.06010178,0.080344126,0.16239819,-0.037061583,4.496712,8.993442,-0.03430076,0.016995527,0.03052559
0.22403999,4.138606,9.217234,-0.009522184,0.07081465,-0.07901555,0.02821381,4.4071856,9.04939,-0.028106116,0.030450307,0.0031403042
-0.057506043,4.0797114,9.580179,-0.0024361555,-0.03938536,-0.31505364,0.0067838468,4.325317,9.182087,-0.021688625,0.012991391,-0.07640818
-0.26244092,3.5434334,10.130822,-0.033468083,0.055176497,-0.16893482,-0.060522344,4.129846,9.4192705,-0.02463349,0.023537667,-0.09953984
-0.79440963,6.4551363,7.108033,0.10043346,0.09060665,0.06856937,-0.24399418,4.711169,8.841461,0.006633248,0.040304914,-0.057512537
-1.4872619,6.3794827,7.4149566,0.055473823,-0.02301419,0.041446976,-0.5548111,5.1282473,8.484835,0.018843392,0.024475139,-0.03277266
-0.9667848,6.6595926,7.298125,7.40E-04,0.0070403568,0.015790658,-0.65780455,5.5110836,8.188157,0.01431763,0.020116443,-0.020631831
-1.1860842,6.4479537,7.175547,-0.0029248474,-0.020082038,-0.021594264,-0.78987443,5.7453012,7.9350047,0.010007011,0.010066822,-0.02087244
-0.79201555,6.5341415,7.1444235,0.0017177267,-0.045249663,0.042913057,-0.7904097,5.9425116,7.7373595,0.0079346895,-0.0037622992,-0.004926067
-0.101078644,6.760144,7.11761,-0.0029248474,4.43E-04,0.0035733627,-0.025269661,1.690036,1.7794025,-7.31E-04,1.11E-04,8.93E-04
-0.059900142,6.719445,7.1334105,-0.004146576,0.0033751675,-0.0018022461,-0.03392728,2.9473884,3.1179044,-0.0015850528,9.27E-04,2.19E-04
0.02245686,6.6921515,7.120004,-0.002924846,0.003619514,-0.0027796295,-0.019831246,3.8835793,4.118429,-0.0019200011,0.0016000217,-5.30E-04
-0.059900153,6.664859,7.082656,-0.0019474626,0.003130821,0.004795091,-0.029848473,4.5788994,4.8594856,-0.0019268665,0.0019827215,8.01E-04
-0.018242827,6.6299057,7.2545524,-0.0014587715,0.007529048,-3.36E-04,-0.026947062,5.091651,5.4582524,-0.0018098428,0.003369303,5.17E-04
-0.05223902,6.805154,7.153043,-0.004879614,-0.0049325926,0.0065055136,-0.033270054,5.5200267,5.88195,-0.0025772855,0.0012938292,0.0020139255
0.011922827,7.1590014,6.5751076,0.022487126,-0.0020004418,0.007727243,-0.021971833,5.9297705,6.055239,0.0036888176,4.70E-04,0.0034422548
-0.0019629567,7.272003,6.274887,0.0046498766,-0.016661195,0.07589975,-0.016969614,6.2653284,6.1101513,0.0039290823,-0.0038126027,0.021556627
0.52617526,7.5449305,5.439347,7.40E-04,0.08156585,0.1560452,0.11881661,6.585229,5.94245,0.0031318972,0.01753201,0.05517877
0.0550166,7.6363845,6.154225,0.007337681,0.0067960112,-0.21560489,0.102866605,6.8480177,5.9953938,0.004183343,0.014848011,-0.012517147
-0.31558987,7.72353,5.646197,-0.016119525,-0.041828822,-0.13814725,-0.0017475188,7.0668955,5.9080944,-8.92E-04,6.79E-04,-0.043924674
-0.47647333,7.964855,6.2811112,-0.007811764,-0.10022749,0.06588156,-0.12042897,7.2913857,6.0013485,-0.0026222211,-0.02454777,-0.016473116
0.31836748,7.9394774,4.9068995,-0.033712428,0.08083282,0.035582677,-0.010729857,7.4534087,5.7277365,-0.0103947725,0.0017973762,-0.0034591686
0.27096432,7.938998,5.276548,9.85E-04,0.07643458,-0.15256365,0.059693687,7.574806,5.614939,-0.007549907,0.020456677,-0.04073529
-0.35724717,8.029974,5.8171353,-0.03468981,-0.11513259,-0.15207496,-0.04454153,7.688598,5.6654882,-0.014334883,-0.013440641,-0.06857021
-0.25717387,7.4975266,7.047702,-0.02540467,-0.020815074,0.3652053,-0.09769961,7.64083,6.0110416,-0.017102329,-0.01528425,0.03987366
-0.054154314,7.834137,5.6648707,0.009536802,0.040271394,0.13552013,-0.086813286,7.6891565,5.924499,-0.010442547,-0.0013953391,0.06378528
0.27479488,7.1748023,5.6821084,0.028595772,0.117240354,-0.01133174,0.003588751,7.560568,5.863901,-6.83E-04,0.028263584,0.04500602
-0.0541543,7.9950204,4.632056,-0.05716963,0.037339244,0.018722808,-0.010847012,7.669181,5.5559397,-0.014804633,0.030532498,0.038435217
-0.15518527,7.332334,6.163322,0.043989565,0.054687805,0.060750306,-0.046931572,7.584969,5.707785,-1.06E-04,0.036571324,0.04401399
0.21781532,7.565999,6.3457522,-0.024427284,0.08523103,-0.040897585,0.019255154,7.5802264,5.867277,-0.0061863833,0.048736252,0.022786096
-0.34623435,6.994766,5.315332,-0.03126897,-0.033276718,0.08542924,-0.072117224,7.4338613,5.729291,-0.01245703,0.02823301,0.03844688
0.29825702,5.519044,7.3886213,-0.15930623,0.091339685,0.002595976,0.020476341,6.955157,6.1441236,-0.04916933,0.044009678,0.029484155
-0.24759746,3.2432132,9.629019,0.02810708,0.0053299344,-0.08170334,-0.046542108,6.027171,7.0153475,-0.02985023,0.03433974,0.0016872808
-0.13986304,3.323655,10.641724,0.052541666,-0.041828826,0.16581903,-0.06987234,5.351292,7.9219418,-0.009252256,0.015297599,0.04272022
0.15844166,4.1194534,9.6424265,-0.08038249,0.09769268,0.08958312,-0.012793839,5.0433326,8.352063,-0.027034814,0.03589637,0.054435946
-0.080968216,4.3483295,9.351783,0.04594433,0.17881551,0.31096053,-0.029837433,4.8695817,8.601994,-0.008790027,0.07162616,0.118567094
0.10146214,3.947557,9.559111,0.013201983,0.060063407,-0.03601067,0.0029874593,4.6390753,8.841272,-0.003292025,0.068735465,0.079922654
0.84985733,4.9511633,8.955799,0.035193108,-0.008597781,0.005283785,0.21470493,4.7170973,8.869904,0.006329258,0.049402155,0.061262935
0.42370778,6.577235,7.430279,-0.002436155,0.011927275,-0.0015579006,0.26695564,5.182132,8.509997,0.004137905,0.040033437,0.045557726
0.3016088,6.7620597,7.0055656,0.011980253,0.009483814,-8.25E-04,0.27561894,5.5771136,8.133889,0.006098492,0.032396033,0.03396208
0.60326517,6.744343,7.1870394,-0.0034135384,-0.0051769386,0.013591547,0.3575305,5.868921,7.8971767,0.0037204844,0.02300279,0.028869446
0.1303737,6.6339865,7.3088646,-0.003134285,0.02701854,-0.0053510787,0.032593425,1.6584966,1.8272161,-7.84E-04,0.006754635,-0.0013377697
-0.049411707,6.539819,7.452738,-0.0013307808,-0.0070153493,-0.045842685,0.012092143,2.878827,3.2335966,-9.20E-04,0.0033121388,-0.012463998
0.065733045,6.4868064,7.2413735,0.0026252968,-0.11615652,-0.2983916,0.025502369,3.7808218,4.235541,-3.40E-05,-0.026555026,-0.0839459
-0.1127983,6.730777,7.2564225,0.010013851,-0.116040155,-0.23154557,-0.009072799,4.5183105,4.9907613,0.0024779958,-0.04892631,-0.12084582
-0.31185058,6.9876304,6.991703,0.0128063755,-0.005037317,-0.07731676,-0.08476724,5.1356406,5.490997,0.0050600907,-0.037954062,-0.10996355
-0.63904405,7.1040287,6.693695,0.004952401,-0.026621196,-0.23678155,-0.22333644,5.6277375,5.7916713,0.005033168,-0.035120845,-0.14166805
-1.2294742,7.1736856,6.695861,0.02124213,-0.06368032,-0.32067364,-0.47487086,6.0142245,6.017719,0.009085408,-0.042260714,-0.18641946
-1.8868253,6.8216386,6.521206,0.036891904,-0.12691939,-0.36058345,-0.82785946,6.216078,6.1435905,0.016037032,-0.063425384,-0.22996046
-2.1996543,6.871117,6.942681,0.1287543,-0.24804512,-0.15190044,-1.1708082,6.3798375,6.343363,0.04421635,-0.109580316,-0.21044545
-1.2813467,7.275947,6.6156015,0.024907313,0.35624555,1.4716616,-1.1984428,6.6038647,6.4114227,0.03938909,0.0068761483,0.2100813
0.958048,7.689443,6.2165847,0.0074540367,0.3376869,0.6325663,-0.6593201,6.8752594,6.3627133,0.031405326,0.08957884,0.31570256
0.60771143,7.600291,5.9698796,-0.018551342,0.15262398,-0.25371122,-0.34256223,7.056517,6.264505,0.01891616,0.10534012,0.17334911
0.19547041,7.6291337,6.6093316,-0.013024473,-0.041980084,-0.3839709,-0.20805407,7.1996713,6.350712,0.010931002,0.06851007,0.034019113
-0.94092834,7.5001945,6.215901,-0.0055195643,-0.093583606,-0.41608486,-0.39127263,7.274802,6.317009,0.0068183606,0.027986653,-0.07850688
-1.3203361,7.6746225,6.229012,0.06726061,-0.10021586,0.26430207,-0.6235385,7.3747573,6.2950096,0.021928921,-0.004063975,0.007195361
-0.33009133,7.9104977,6.589494,0.03834633,-0.04494714,-0.113910474,-0.5501767,7.5086923,6.368631,0.026033275,-0.014284766,-0.023081098
-0.3382996,7.760241,5.4305224,0.024616431,-0.10772077,-0.072720736,-0.4972074,7.5715795,6.134104,0.025679063,-0.037643768,-0.03549101
-0.025356725,7.3025107,6.701789,0.04247695,0.012299612,0.18710038,-0.37924474,7.5043125,6.276025,0.029878534,-0.025157923,0.020156838
-0.15064786,7.9016047,5.8323894,0.026885353,0.051453125,0.16644734,-0.3220955,7.603636,6.165116,0.029130239,-0.0060051605,0.056729466
0.022867294,6.6481237,5.7549806,-0.06497706,0.06547394,-0.11676116,-0.2358548,7.3647575,6.062582,0.005603414,0.011864614,0.013356809
-0.046333563,7.806867,6.636921,3.56E-04,0.033650786,-0.09093032,-0.18847449,7.475285,6.2061667,0.0042916546,0.017311156,-0.012714975
-0.06468835,7.5355353,6.5085506,0.08331762,0.012415966,-0.01431043,-0.15752795,7.490348,6.2817626,0.024048146,0.016087359,-0.013113839
-0.16957264,7.3408165,6.786494,0.041138865,0.0072381594,-0.036650628,-0.16053912,7.452965,6.4079456,0.028320827,0.013875059,-0.018998036
-0.4373697,7.7017546,5.8319335,-0.036935467,0.0043292795,-0.025073284,-0.22974676,7.5151625,6.2639427,0.012006752,0.011488615,-0.020516848
-0.10094179,7.3589425,6.4847236,-0.03670276,-0.013298528,0.11600739,-0.19754551,7.4761076,6.319138,-1.71E-04,0.005291829,0.013614209
-0.30341423,7.061733,3.8821106,0.037939087,0.072746135,0.010764107,-0.22401269,7.372514,5.7098813,0.009356802,0.022155406,0.012901684
-0.22475097,7.2889447,6.251015,9.38E-04,-0.04936864,-0.16411772,-0.22419725,7.3516216,5.845165,0.0072521362,0.0042743944,-0.03135317
-0.32097098,6.3897886,7.2764864,-0.0023779874,-0.11377124,0.0881403,-0.24839069,7.111163,6.2029953,0.0048446055,-0.025237013,-0.0014798008
-0.15862826,6.7127643,6.2563725,-0.16987127,-0.08363524,0.084242426,-0.22595008,7.0115633,6.2163396,-0.038834363,-0.03983657,0.019950755
0.2853061,5.079304,7.861902,0.02653629,-0.036976807,0.12194148,-0.09813604,6.5284986,6.6277304,-0.022491701,-0.039121628,0.045448437
-0.040861316,2.6647992,9.538454,-0.07236563,0.13138914,0.2039137,-0.083817355,5.562574,7.3554115,-0.03496018,0.0035060644,0.085064754
0.025717381,3.8387055,9.229842,-0.011802749,0.07076809,-0.07080087,-0.05643367,5.131607,7.8240194,-0.029170822,0.02032157,0.046098348
0.03175964,4.0856395,9.811953,-0.02762705,0.1138777,0.08377699,-0.034385342,4.8701153,8.321003,-0.028784879,0.043710604,0.05551801
-0.0058619096,3.6747665,10.001314,-0.029488735,0.020968068,-0.13037471,-0.027254485,4.571278,8.741081,-0.028960843,0.03802497,0.009044826
0.16594319,3.7592442,9.733174,0.028456144,0.002409418,-0.009481688,0.021044932,4.3682694,8.989104,-0.014606596,0.029121082,0.0044131977
0.036889862,6.3656197,6.842015,0.039451715,0.0012458656,0.030195428,0.025006164,4.867607,8.452332,-0.0010920186,0.022152279,0.010858756
0.21154507,6.842615,7.233279,0.016006146,-0.0069571724,0.021643328,0.071640894,5.361359,8.147569,0.0031825225,0.014874916,0.013554899
0.3460706,6.782877,7.117906,-0.014537092,-0.0041064713,0.014603836,0.14024831,5.7167387,7.890153,-0.0012473813,0.010129569,0.013817133
0.23012781,6.7022758,7.056914,-0.0029597534,0.022538863,-0.043108337,0.16271819,5.963123,7.6818433,-0.0016754743,0.013231892,-4.14E-04
-0.032653015,6.5784674,7.2138977,-0.0020289114,0.011717832,-0.015066736,0.11387539,6.116959,7.564857,-0.0017638336,0.012853377,-0.004077359
-0.1020819,6.6351266,7.090659,-0.0010980703,-0.008004367,0.013091218,0.059886068,6.246501,7.4463077,-0.0015973927,0.0076389406,2.15E-04
0.18395588,6.5718536,7.247187,-0.004181482,-7.32E-04,0.003899158,0.09090352,6.327839,7.3965273,-0.002243415,0.005546163,0.0011358785
0.03210166,6.6409416,7.3031654,-2.84E-04,0.015732089,-0.009132623,0.076203056,6.4061146,7.373187,-0.0017534572,0.008092645,-0.0014312468
0.04113083,6.4388566,7.4953985,-0.0021918085,-0.0073760515,-0.09049981,-0.017557628,2.821309,3.2458394,-5.48E-04,-0.0018440129,-0.022624953
-0.7288114,6.5853753,6.8729324,0.009292447,-0.059666075,-0.33118048,-0.19537106,3.7623258,4.1526127,0.0019121476,-0.016299529,-0.09976384
-1.5509448,7.1767173,6.8619204,0.017844554,-0.010796894,-0.17895302,-0.5342645,4.615924,4.82994,0.0058952495,-0.014923871,-0.119561136
-1.6155856,7.082391,6.428588,0.020043667,-0.08458935,-0.25860977,-0.80459476,5.2325406,5.229602,0.009432354,-0.03234024,-0.1543233
-1.7410362,7.466882,6.3203754,0.06500332,-0.2238665,-0.33948824,-1.0387051,5.7911263,5.5022955,0.023325097,-0.0802218,-0.20061453
-1.7534857,7.567914,6.4137444,0.061582465,-0.13101508,0.19000927,-1.2174003,6.235323,5.730158,0.03288944,-0.092920125,-0.102958575
-0.22222003,7.7685385,6.086232,-0.05057229,0.22915077,0.7204842,-0.9686053,6.6186266,5.8191767,0.012024008,-0.0124024,0.102902114
0.059804805,8.112332,6.2926035,0.043012183,0.10893259,-0.11884393,-0.7115028,6.992053,5.9375334,0.01977105,0.017931348,0.047465604
-0.111133836,8.013216,5.8214445,0.021265399,0.078389354,-0.15647319,-0.56141055,7.247344,5.908511,0.020144638,0.03304585,-0.0035190955
-0.7359936,7.663677,5.9042807,-0.095043235,-0.03474279,-0.26765054,-0.6050563,7.351427,5.9074535,-0.008652329,0.01609869,-0.06955196
-1.0548875,7.802535,5.702219,0.02541928,-0.1268612,-0.23026566,-0.7175141,7.464204,5.856145,-1.34E-04,-0.019641284,-0.109730385
-0.8327152,7.801099,5.589217,0.0110028675,-0.09827272,0.07492236,-0.7463144,7.5484276,5.789413,0.0026498965,-0.03929914,-0.0635672
-0.4544476,7.6052613,6.9701333,0.08161884,-0.023502879,0.05464165,-0.6733477,7.562636,6.084593,0.022392131,-0.035350077,-0.034014985
-0.5468598,8.101797,6.0024385,0.03177227,0.01681419,0.058062494,-0.6417257,7.6974263,6.0640545,0.024737166,-0.022309009,-0.010995615
-0.19636378,6.8808074,7.3191924,0.07795365,0.049312193,-0.13545945,-0.53038526,7.493272,6.377839,0.038041286,-0.0044037085,-0.042111576
-0.72737485,7.6186686,5.00793,0.23677847,-0.017638577,-0.103205785,-0.57963264,7.524621,6.035362,0.08772558,-0.0077124257,-0.057385128
-0.3380944,7.762793,6.073304,0.06304855,0.019990688,0.03704875,-0.51924807,7.584164,6.0448475,0.08155632,-7.87E-04,-0.03377666
-0.31989926,7.2245994,6.927039,-0.018807326,0.010949891,-0.09343196,-0.46941087,7.494273,6.265395,0.05646541,0.0021474874,-0.048690483
-0.7738204,7.565519,6.169547,0.04105742,-0.030100217,-0.1149344,-0.5455133,7.5120845,6.241433,0.05261341,-0.0059144385,-0.06525146
-0.52004594,7.6857033,5.4570627,-0.047884483,-0.058444344,-0.005956125,-0.5391464,7.555489,6.0453405,0.027488938,-0.019046914,-0.050427627
-0.40848094,7.3352065,6.515254,-0.05716964,-0.023014188,-0.05702441,-0.50648004,7.5004187,6.162819,0.006324293,-0.020038731,-0.052076824
-0.6991245,7.2614684,7.3785667,-0.02222817,-0.07945809,0.019455846,-0.5546411,7.440681,6.466756,-8.14E-04,-0.034893572,-0.034193657
-0.81068945,7.1259627,4.50086,-0.014164741,-0.08141286,0.04486782,-0.6186532,7.3620014,5.9752817,-0.0041515524,-0.046523392,-0.014428288
-0.6215557,6.7290215,6.8121223,-0.030535936,-0.018127272,0.067591995,-0.6193788,7.2037563,6.184492,-0.010747649,-0.039424364,0.006076783
-0.49083796,7.481247,6.7067823,-0.016119523,0.0028864755,0.06759199,-0.5872436,7.273129,6.3150644,-0.012090618,-0.028846655,0.021455584
-0.22269885,6.413957,7.6759133,0.10116651,0.07570155,8.86E-04,-0.49610743,7.0583363,6.655277,0.016223663,-0.0027096048,0.016313078
-0.23658466,7.2633843,6.6785326,-0.043730613,0.055176497,-0.052381843,-0.43122673,7.109598,6.661091,0.0012350939,0.0117619205,-8.61E-04
-0.5162154,6.987105,6.6153274,0.051808637,0.0461357,-0.08268073,-0.45247388,7.0789747,6.64965,0.01387848,0.020355366,-0.021315672
-0.65411544,6.4149156,6.06277,-0.029802915,-0.03767494,-0.016707346,-0.50288427,6.91296,6.50293,0.002958131,0.0058477893,-0.02016359
-0.46162987,6.758708,7.143466,0.04716607,-0.05453481,0.056840762,-0.49257067,6.8743973,6.663064,0.014010116,-0.009247861,-9.13E-04
-0.4467865,6.531268,6.6210737,-0.013431717,0.019501997,-0.026481181,-0.48112464,6.788615,6.6525664,0.007149658,-0.0020603966,-0.007304672
-0.5693643,4.5542216,8.993147,-0.16810265,-0.057955645,0.020677574,-0.50318456,6.2300167,7.2377114,-0.036663417,-0.016034208,-3.09E-04
-0.4707275,1.936993,10.614909,0.17886849,0.05664257,0.11792724,-0.49507028,5.1567607,8.082011,0.017219558,0.0021349862,0.029249977
0.026287388,3.1996408,8.330461,0.012713297,-0.025213301,-0.19605723,-0.36473086,4.6674805,8.144123,0.016092993,-0.0047020856,-0.027076825
-0.50041425,3.3590877,10.295536,-0.040554132,-0.12344035,0.0018629478,-0.39865172,4.340382,8.681976,0.0019312119,-0.03438665,-0.019841883
-0.18199918,3.4069698,9.604599,0.0029394552,0.06837117,0.1736381,-0.3444886,4.107029,8.912632,0.0021832727,-0.008697195,0.028528113
0.1737639,3.9365444,9.881836,0.052052986,-0.05551219,-0.3130989,-0.21492547,4.064408,9.154933,0.014650701,-0.020400943,-0.056878645
-0.5952206,3.488369,10.004415,0.023953203,-0.12026385,-0.178953,-0.30999926,3.9203982,9.367304,0.016976327,-0.04536667,-0.08739723
-0.21934709,4.335401,9.486811,7.31E-06,-0.005176939,0.07712147,-0.28733623,4.024149,9.397181,0.012734071,-0.03531924,-0.046267558
-0.41135383,4.191276,9.070715,-0.012209991,-0.0078647435,-0.021594264,-0.31834063,4.065931,9.315564,0.0064980555,-0.028455615,-0.040099233
-0.30505586,6.0160584,7.919633,0.072333686,0.044180933,-0.003757013,-0.31501943,4.553463,8.966581,0.022956964,-0.010296479,-0.031013679
-1.3560652,6.385707,6.982582,0.009048103,0.0221898,0.034116596,-0.57528085,5.011524,8.470581,0.019479748,-0.0021749092,-0.014731109
-0.70534915,6.386665,7.31632,0.004894222,-0.01641685,0.039736554,-0.6077979,5.3553095,8.182015,0.015833367,-0.0057353945,-0.0011141934
-0.71588314,6.4915266,7.223429,-0.0017031161,-0.013729045,0.03216183,-0.6348192,5.639364,7.942369,0.011449246,-0.007733807,0.007204813
-0.51860946,6.4254494,7.2751417,-0.0029248474,-0.010796893,0.019211499,-0.6057668,5.835885,7.7755623,0.007855723,-0.008499579,0.010206484
-0.35389546,6.506849,7.1942215,-0.00683438,0.019501999,-0.032834172,-0.15707374,2.861919,3.1455865,-0.001708595,0.0048754998,-0.008208543
-0.5607456,6.5690956,7.2717896,-0.0034135384,0.00557428,-0.0101100085,-0.2579917,3.788713,4.1771374,-0.002134831,0.005050195,-0.00868391
-0.40034097,6.469022,7.248807,9.85E-04,-0.017149886,0.04242436,-0.293579,4.4587903,4.945055,-0.0013549512,-5.00E-04,0.004093157
-0.43768892,7.262426,6.8456407,0.009536794,0.043447893,-0.026969872,-0.32960647,5.1596994,5.4202013,0.0013679853,0.010487104,-0.0036726003
-0.85809267,7.065631,6.597612,0.010025485,0.0043525505,-0.081459016,-0.46172804,5.6361823,5.714554,0.0035323603,0.008953465,-0.023119204
-0.386934,7.4529963,6.378312,0.010269833,0.072280705,0.11157424,-0.44302952,6.090386,5.880493,0.0052167284,0.024785275,0.010554157
-0.39220104,7.5118914,6.478864,0.0031837998,0.025366297,-0.07144082,-0.4303224,6.445762,6.030086,0.0047084964,0.02493053,-0.009944588
-0.7154044,7.413733,6.0910206,0.099456094,-0.16082525,-0.5684403,-0.5015929,6.6877546,6.0453196,0.028395396,-0.021508418,-0.14956853
-1.9885862,7.2485404,5.897098,0.0056272587,-0.17621906,0.0035733627,-0.8733412,6.827951,6.008264,0.02270336,-0.06018608,-0.11128306
-0.86958426,8.132921,5.2478185,0.043256525,0.022189802,0.57265496,-0.87240195,7.1541934,5.8181524,0.027841652,-0.03959211,0.05970145
-0.5301011,8.126217,6.586599,0.06524766,0.030008871,0.15971039,-0.7868267,7.397199,6.010264,0.037193157,-0.022191864,0.084703684
-0.009145251,8.014652,6.4817376,-0.06083482,0.08718581,0.29312328,-0.5924064,7.5515623,6.1281323,0.012686163,0.0051525533,0.13680857
0.45387346,7.799662,5.008409,0.0024507642,0.1744173,-0.15036455,-0.33083642,7.6135874,5.8482018,0.010127313,0.04746874,0.06501529
-0.78818494,7.645482,5.6706166,0.0180889,-0.08752151,-0.19043727,-0.44517356,7.621561,5.8038054,0.01211771,0.013721179,0.0011521503
-1.0678158,7.3505287,5.4158845,-0.006345682,-0.06846253,0.053419918,-0.60083413,7.553803,5.7068253,0.007501862,-0.0068247467,0.014219092
-0.56361854,7.708687,6.443432,-0.038599346,0.039294016,0.13967402,-0.5915302,7.592524,5.890977,-0.00402344,0.004704944,0.045582823
-0.4779098,7.821209,5.5973577,-0.013920404,0.06543902,0.041935667,-0.56312513,7.6496954,5.817572,-0.006497681,0.019888464,0.044671036
-0.5928265,7.3031263,6.564574,0.07526585,0.014859423,-0.12055436,-0.57055044,7.563053,6.0043225,0.013943201,0.018631205,0.0033646896
-0.81978714,7.441026,6.350062,0.019799326,-0.03767494,-0.02599249,-0.6328596,7.5325465,6.0907574,0.015407233,0.0045546684,-0.0039746054
-0.53680456,7.0756865,5.1989794,0.016622826,-0.0068873605,-0.017929073,-0.60884583,7.4183316,5.867813,0.01571113,0.0016941612,-0.0074632224
-0.66752243,7.1254845,6.885382,0.09432482,-0.026923722,0.024098417,-0.623515,7.34512,6.1222053,0.035364553,-0.00546031,4.27E-04
-0.56744903,8.039551,6.7441306,-0.01611952,-0.014706429,-0.008643931,-0.6094985,7.518728,6.2776866,0.022493536,-0.0077718394,-0.0018405921
-0.6507637,7.040254,6.476949,0.06304854,0.001664747,-0.041630626,-0.6198148,7.3991094,6.3275023,0.032632288,-0.0054126927,-0.011788101
-0.46019346,6.797971,6.480301,-0.0024361536,-0.03718625,-0.08365813,-0.57990944,7.2488246,6.3657017,0.023865178,-0.013356082,-0.029755607
-0.7824391,5.7249365,6.073783,0.1287776,-0.08312328,-0.014019541,-0.63054186,6.8678527,6.2927217,0.050093282,-0.030797882,-0.02582159
-0.27728432,3.548222,6.469767,-0.15979491,-0.08629978,0.10839775,-0.5422275,6.037945,6.336983,-0.0023787655,-0.044673353,0.0077332463
0.20297194,3.3882961,9.093221,0.033482693,-0.0041995547,0.17681459,-0.35592765,5.3755326,7.0260425,0.006586599,-0.034554902,0.05000358
-0.13555366,3.854187,8.676648,0.04105742,0.015836809,-0.033811554,-0.30083415,4.9951963,7.438694,0.015204304,-0.021956975,0.029049797
-0.2452034,3.642549,9.210531,-0.027115092,0.05688692,0.2129778,-0.28692645,4.6570344,7.8816533,0.0046244552,-0.0022460017,0.075031795
-0.119752586,4.4575005,9.137273,0.09359178,0.14143059,0.16826248,-0.24513298,4.607151,8.195559,0.026866287,0.033673145,0.09833947
0.011922819,3.5807815,9.41403,-0.051794026,0.030008871,-0.14205678,-0.18086904,4.3505588,8.500176,0.0072012097,0.032757077,0.038240407
-0.47072744,3.93032,9.651045,-0.019540362,0.024388915,0.017501079,-0.25333363,4.245499,8.787893,5.16E-04,0.030665036,0.033055574
0.2173365,3.9853835,9.483458,0.029573154,0.019746343,-0.016218653,-0.1356661,4.1804705,8.961784,0.007780151,0.027935363,0.020737017
0.036342613,5.8752856,7.7237954,0.07306673,0.0077733933,-0.020128187,-0.09266392,4.604174,8.6522875,0.024101796,0.02289487,0.010520715
0.07081765,6.3857074,7.151128,0.025174934,0.011927273,-0.009621315,-0.05179353,5.0495577,8.276998,0.02437008,0.020152971,0.005485208
-0.4759945,6.6318207,7.4867797,0.016867172,0.025121951,-0.03967586,-0.15784377,5.4451237,8.079443,0.022494353,0.021395216,-0.0058050593
-0.4223667,6.537493,7.1578307,-7.26E-04,0.024633259,-0.007910893,-0.2239745,5.718216,7.84904,0.016689332,0.022204727,-0.006331518
-0.26722908,6.5250435,7.34888,-9.70E-04,0.028298449,-0.040653244,-0.23478815,5.919923,7.724,0.0122744795,0.023728158,-0.01491195
-0.3491073,6.589685,7.152564,-0.001703117,-0.013240352,0.026786221,-0.26336795,6.0873632,7.581141,0.008780081,0.014486031,-0.0044874065
-0.008379706,4.951209,8.135497,-0.01282817,-0.019547688,-0.03848451,-0.0020949265,1.2378023,2.0338743,-0.0032070426,-0.004886922,-0.0096211275
0.20470424,5.5976434,8.072051,-0.018325957,0.019547688,-0.005497787,0.049604863,2.3277626,3.5434184,-0.006986771,0.0012217304,-0.008590292
0.088585466,4.687847,7.9272017,-0.073303826,-0.14110987,-0.049480084,0.059350014,2.9177837,4.6393642,-0.023566034,-0.03436117,-0.01881274
0.02633622,13.324929,5.901707,0.09162979,0.02687807,-0.21135938,0.051096566,5.5195704,4.95495,0.0052329227,-0.019051358,-0.0669494
-0.8846575,9.662998,7.586028,-0.07086037,-0.03604105,-0.258396,-0.18284196,6.5554276,5.6127195,-0.013790401,-0.023298781,-0.11481105
-2.6982653,2.4863784,9.384073,0.039095376,-0.12583824,-0.3036,-0.8116978,5.538165,6.555558,-5.69E-04,-0.048933644,-0.16200829
-3.9097314,2.0135236,7.368156,0.22968534,-0.17592919,0.27672195,-1.5862062,4.657005,6.7587075,0.056994617,-0.08068253,-0.052325726
1.8722657,4.1000705,8.711303,0.10873401,0.0012217305,0.049480084,-0.72158825,4.5177712,7.246856,0.069929466,-0.060206465,-0.026874274
0.3890578,5.693412,9.831789,-0.03481932,0.047036625,0.25717425,-0.44392675,4.8116813,7.8930893,0.04374227,-0.033395693,0.044137858
1.3108255,9.168595,6.7947445,-0.06536258,0.06963864,-0.2180789,-0.005238712,5.90091,7.618503,0.016466057,-0.0076371096,-0.021416329
-0.4141969,13.449428,5.3199162,0.09896017,-0.08124508,-0.37873647,-0.10747826,7.788039,7.0438566,0.037089586,-0.026039101,-0.11074636
1.3144168,5.816713,7.153875,0.047647487,-0.021991149,-0.039095376,0.2479955,7.2952075,7.071361,0.039729062,-0.025027113,-0.092833616
0.088585466,0.8631097,7.631518,0.18203785,0.059253927,-0.14905111,0.208143,5.687183,7.2114,0.07530626,-0.0039568525,-0.10688799
-1.8195933,5.571307,6.3482256,-0.047647487,-0.03359759,0.16432275,-0.29879105,5.658214,6.9956064,0.044567823,-0.011367036,-0.039085306
3.180697,13.6409645,1.0007763,-0.28405234,-0.21685717,-0.14294247,0.5710809,7.6539016,5.4968987,-0.037587218,-0.062739566,-0.065049596
2.6144683,5.1822495,4.8745947,0.010995574,-0.02321288,0.17470746,1.0819278,7.035989,5.341323,-0.02544152,-0.052857894,-0.005110331
1.8650831,9.88925,-1.5646108,-0.31642818,-0.027488936,-0.028099801,1.2777166,7.749304,3.6148396,-0.098188184,-0.046515655,-0.0108576985
-0.36750996,15.314511,7.789535,0.32925636,0.22540927,0.06414085,0.86641,9.640606,4.6585135,0.008672953,0.021465573,0.007891939
-2.457648,8.945934,9.830592,0.28344148,0.1160644,-0.023823744,0.035395503,9.466938,5.9515333,0.077365085,0.04511528,-3.70E-05
1.3204023,-0.18435353,5.544971,-0.2125811,-0.096516706,-0.19120082,0.3566472,7.0541153,5.8498926,0.004878536,0.009707283,-0.04782794
-0.15322891,5.3498435,11.832145,0.3231477,0.21074851,-0.11178834,0.22917816,6.6280475,7.3454556,0.084445834,0.05996759,-0.06381804
0.12928689,-0.6835446,11.902774,-0.19120082,-0.13805555,-0.059253927,0.20420533,4.8001494,8.484785,0.01553417,0.0104618035,-0.06267701
1.316811,0.5494693,6.623559,0.35369098,0.023823744,0.012217305,0.48235673,3.7374794,8.019479,0.100073375,0.013802288,-0.043953434
-0.1448492,-1.1504139,9.907207,-0.38362336,-0.27122417,-0.044593163,0.32555526,2.5155063,8.491411,-0.020850807,-0.057454325,-0.044113368
-0.25857377,5.3642087,3.679888,0.04886922,0.17348573,0.11484267,0.179523,3.2276819,7.2885303,-0.0034208,2.81E-04,-0.004374359
2.255338,11.353305,0.7254431,0.204029,-0.014660766,0.07574729,0.69847673,5.2590876,5.6477585,0.04844165,-0.0034546773,0.015656054
0.077811554,-0.35553896,5.5617304,0.058643065,0.1142318,0.052534413,0.5433104,3.855431,5.626251,0.050992005,0.025966942,0.024875645
-3.3039982,9.921572,12.531252,0.28405234,0.07086037,0.054367006,-0.41851676,5.3719664,7.3525014,0.10925709,0.0371903,0.032248486
-2.3056161,13.615825,13.715184,-0.5852089,-0.5180137,-0.09468412,-0.8902916,7.432931,8.943172,-0.06435941,-0.101610705,5.15E-04
-0.51954174,-2.6503813,6.399701,0.22907446,0.25900686,-0.13194689,-0.7976041,4.9121027,8.307304,0.008999057,-0.011456311,-0.032600224
-0.4381389,-2.7832594,17.55309,-0.43188173,-0.11056661,0.19425514,-0.7077378,2.9882622,10.618751,-0.10122114,-0.036233887,0.024113618
0.39025488,4.435259,12.856863,0.04520403,0.0030543262,0.10445796,-0.43323964,3.3500113,11.178279,-0.06461485,-0.026411835,0.044199705
-0.6715736,3.6008794,13.833697,-0.12461651,-0.1740966,0.021380283,-0.49282312,3.4127283,11.8421335,-0.079615265,-0.06333303,0.038494848
0.12210429,3.9983168,11.722012,-0.06352998,0.007330383,-0.30482176,-0.33909127,3.5591254,11.812103,-0.07559395,-0.045667175,-0.047334306
1.9512744,5.722142,10.69011,0.059253927,-0.047036625,0.057421334,0.23350015,4.0998797,11.531605,-0.04188198,-0.046009537,-0.021145396
-0.44532153,-0.2789245,12.287044,-0.07574729,-0.030543262,-0.31031954,0.06379473,3.0051787,11.720465,-0.050348304,-0.04214297,-0.09343893
0.15562311,-1.7848774,11.696873,0.01160644,-0.05009095,0.050701816,0.086751826,1.8076646,11.714567,-0.03485962,-0.044129964,-0.057403743
0.6356605,5.3103395,8.825027,0.10873401,0.014660766,0.007330383,0.223979,2.6833334,10.992182,0.0010387897,-0.029432282,-0.04122021
0.5626374,5.3019595,6.813898,0.22113322,-0.02443461,0.20525073,0.30864358,3.3379898,9.947611,0.056062397,-0.028182864,0.020397522
2.4588451,5.351041,7.7691846,-0.034208454,-0.047036625,-0.096516706,0.84619397,3.8412526,9.403005,0.033494685,-0.032896303,-0.008831035
0.48003745,6.494272,8.355764,0.017715093,-0.007330383,0.026267206,0.7546548,4.5045075,9.141194,0.029549787,-0.026504822,-5.65E-05
0.9672575,5.7903767,7.8505874,-0.057421334,-0.081855945,-0.015271631,0.24181437,1.4475942,1.9626468,-0.0143553335,-0.020463986,-0.0038179078
0.61650693,4.274847,8.194156,-0.004886922,-0.028099801,0.008552114,0.3354875,2.1544075,3.520524,-0.01198823,-0.02237294,-7.25E-04
-0.7194576,7.526173,9.184157,0.029932396,-0.0018325958,-0.03604105,0.07175124,3.4973488,4.9364324,-0.0015080739,-0.017237853,-0.009554314
0.5255273,8.218098,8.013393,0.22540927,0.14844026,0.029321533,0.18519525,4.677536,5.7056727,0.05522126,0.024181675,1.65E-04
1.3012487,7.9906483,6.6606693,-0.106901415,-0.12705997,-0.65179324,0.4642086,5.505814,5.944422,0.014690593,-0.013628736,-0.16282482
1.2785037,6.8462195,5.2624555,0.2657264,-0.0421497,1.1166617,0.66778237,5.8409157,5.77393,0.077449545,-0.020758977,0.15704681
0.46926352,4.4208937,9.992201,-0.17654006,0.007330383,0.86620694,0.6181527,5.4859104,6.828498,0.0139521435,-0.013736637,0.33433685
1.2653356,7.955932,5.732916,-0.004886922,0.021380283,0.11911872,0.7799484,6.103416,6.5546026,0.009242377,-0.0049574077,0.2805323
0.48243165,12.061988,5.2636523,0.025045475,0.18936823,-0.019547688,0.7055692,7.593059,6.231865,0.013193152,0.043624002,0.2055123
0.6871359,1.8686744,5.9388175,-0.11911872,-0.023823744,-0.26145032,0.7009609,6.161963,6.158603,-0.019884814,0.026762066,0.08877164
-0.46686932,2.4899697,8.429984,0.01038471,0.039095376,-0.38973203,0.40900332,5.2439647,6.7264485,-0.012317433,0.029845394,-0.030854277
-0.830788,11.608287,6.5385647,0.04337143,-0.13194689,0.13439035,0.09905547,6.8350453,6.6794777,0.0016047833,-0.010602675,0.010456882
-0.8607155,-1.1444284,12.73835,0.19730948,0.13805555,0.31887165,-0.14088728,4.840177,8.194196,0.05053096,0.026561879,0.08756057
1.0007763,7.631518,4.283227,0.027488936,0.009773844,-0.06291912,0.14452861,5.5380125,7.2164536,0.044770453,0.02236487,0.04994065
1.6938977,2.2864625,12.909535,0.1966986,0.06658431,0.09162979,0.5318709,4.725125,8.639724,0.082752496,0.03341973,0.060362935
-0.3878607,4.253299,13.034034,-0.23701571,-0.0720821,0.10934488,0.301938,4.607168,9.738301,0.0028104484,0.0070442706,0.07260842
-0.17238252,7.6267295,6.129156,-0.10629055,-0.09896017,-0.16126843,0.18335786,5.3620586,8.836015,-0.024464801,-0.01945684,0.014139205
-1.0869676,10.927136,5.0421886,-0.016493361,-0.02076942,-0.14477506,-0.13422349,6.7533283,7.887558,-0.022471942,-0.019784983,-0.025589362
-1.3431472,3.5757403,8.309077,0.3023783,0.096516706,0.14110987,-0.43645442,5.9589314,7.992938,0.058740616,0.009290438,0.016085446
1.8674773,21.477186,6.603208,0.086132,-0.065973446,-0.20158553,0.13952851,9.838495,7.6455054,0.06558846,-0.009525534,-0.0383323
-0.5446809,-3.3554738,14.324509,-0.40622538,-0.12705997,-0.103847094,-0.03152384,6.540003,9.315256,-0.052365005,-0.03890914,-0.054711
-1.1923125,1.7381904,9.49301,0.04886922,0.053145275,-0.017715093,-0.32172102,5.33955,9.3596945,-0.027056448,-0.015895538,-0.045462023
0.46327803,0.94451255,14.451402,-0.06047566,-0.016493361,-0.116675265,-0.12547126,4.2407904,10.632622,-0.03541125,-0.016044993,-0.06326534
-2.1140802,1.3946224,13.198037,-0.1282817,-0.040927973,-0.20158553,-0.6226235,3.5292482,11.273975,-0.05862886,-0.022265738,-0.09784539
1.1372458,5.141548,11.550826,-0.043982297,-0.09773844,0.029321533,-0.18265617,3.9323232,11.343188,-0.05496722,-0.04113391,-0.06605366
0.12569559,0.35673606,12.193669,-0.013439035,0.14294247,0.16798794,-0.10556823,3.0384264,11.555809,-0.044585176,0.0048851855,-0.0075432584
-0.02633622,0.37828386,10.465055,-0.009773844,0.14294247,-0.009773844,-0.08576023,2.3733907,11.283121,-0.035882343,0.03939951,-0.0081009045
0.33638534,5.374983,7.374141,0.06780604,-0.020158553,0.31581733,0.019776165,3.1237888,10.305876,-0.009960245,0.024509992,0.07287865
1.2533646,7.0820484,7.231686,-0.031154128,0.005497787,0.20830505,0.32817328,4.1133537,9.537329,-0.015258716,0.019756941,0.10673525
4.107253,3.2273839,5.711368,0.014660766,0.16187929,0.88514376,1.2729433,3.8918612,8.580838,-0.0077788457,0.055287525,0.3013374
2.493561,12.768278,8.275558,-0.07147124,0.029932396,0.66706485,1.5780977,6.1109657,8.5045185,-0.023701943,0.048948742,0.39276925
4.036624,-0.18195933,6.5481415,-0.073303826,0.06658431,0.344528,2.1927292,4.5377345,8.015425,-0.036102414,0.053357635,0.38070893
2.1631613,6.859388,7.8757267,0.08246681,0.26083946,0.39278635,2.1853373,5.118148,7.9805,-0.006460108,0.105228096,0.3837283
1.9165585,7.3190746,8.599973,0.09773844,0.10873401,-0.6267477,2.1181426,5.66838,8.135368,0.019589528,0.106104575,0.1311093
1.0139444,2.60968,9.3026705,-0.02076942,-0.13622294,-0.35918877,1.842093,4.9037046,8.427194,0.009499792,0.045522697,0.008534782
1.5406688,3.5649664,9.321824,-0.016493361,-0.020158553,0.0061086523,1.766737,4.5690203,8.650851,0.0030015036,0.029102385,0.007928249
1.555034,4.5046906,8.366538,0.042760566,-0.06780604,-0.026267206,1.7138113,4.552938,8.579773,0.012941269,0.004875278,-6.21E-04
0.29328972,3.596091,8.576031,-0.04337143,-0.028710667,-0.052534413,1.358681,4.3137264,8.578837,-0.0011369064,-0.0035212077,-0.013599064
0.5805939,6.06571,7.041347,0.047647487,0.020158553,0.0018325958,1.1641592,4.7517223,8.194465,0.011059192,0.0023987326,-0.009741149
0.35793316,6.1387334,8.152257,0.017715093,0.016493361,0.06047566,0.9626027,5.098475,8.183912,0.012723167,0.0059223897,0.007813052
0.15083471,4.794389,8.300697,-0.02321288,-0.028099801,-0.0012217305,0.7596607,5.0224533,8.213108,0.0037391558,-0.0025831577,0.0055543566
-0.031124622,5.5030727,8.123527,-0.02565634,-0.036651913,0.021991149,0.5619644,5.142608,8.190713,-0.0036097183,-0.011100346,0.009663555
0.5422867,4.408922,8.301894,-0.009162978,-0.014049901,-0.022602014,0.557045,4.9591866,8.218508,-0.0049980334,-0.011837735,0.0015971623
0.6392518,4.3275194,8.005013,-0.013439035,-6.11E-04,0.007330383,0.57759666,4.8012695,8.165134,-0.0071082837,-0.009031017,0.0030304675
0.38307226,5.291186,7.9966335,0.004276057,-0.02565634,-0.111177474,0.095768064,1.3227965,1.9991584,0.0010690142,-0.006414085,-0.027794369
-0.973243,5.5964465,8.374918,0.045814894,-0.105068825,-1.0036516,-0.17148471,2.3912091,3.5930982,0.012255484,-0.03107777,-0.27175868
-2.0901382,7.267599,7.419631,-0.06536258,0.048258353,-0.31031954,-0.6511481,3.6103067,4.5497313,-0.0071490314,-0.01124374,-0.2813989
-3.2393548,6.409278,7.6015906,0.08735373,0.007330383,-0.8906415,-1.2981998,4.3100495,5.312696,0.01647666,-0.0066002095,-0.43370956
-4.6938324,1.7645266,8.329428,0.21074851,-0.05375614,-0.3640757,-2.147108,3.6736689,6.066879,0.06504462,-0.018389191,-0.4163011
-1.7369933,2.3403323,7.3968863,0.33475417,-0.12156218,0.5900958,-2.0445795,3.3403347,6.3993807,0.13247201,-0.04418244,-0.16470188
2.3762453,5.0960584,6.457162,0.1459968,-6.11E-04,0.9957104,-0.93937325,3.7792656,6.413826,0.1358532,-0.033289544,0.1254012
1.1899183,7.321469,6.159084,-0.20280726,-0.11178834,0.27122417,-0.40705037,4.6648164,6.3501406,0.05118808,-0.052914243,0.16185695
-1.9081788,4.3981485,7.00304,-0.032375857,-0.11484267,0.28588495,-0.7823325,4.5981493,6.5133653,0.030297097,-0.06839635,0.19286394
-0.89423436,5.459977,8.112753,-0.057421334,-0.054367006,0.40744713,-0.810308,4.8136063,6.9132123,0.00836749,-0.064889014,0.24650973
-0.48362875,7.771579,7.5968018,-0.09712757,-0.09712757,0.065973446,-0.7286382,5.5530996,7.08411,-0.018006276,-0.07294865,0.20137566
2.2960393,8.590396,3.7972038,-0.16615535,0.06536258,0.42760566,0.027531207,6.3124237,6.2623835,-0.055043545,-0.03837084,0.25793317
-0.5662287,-3.2800562,12.445061,0.0580322,0.034208454,-0.226631,-0.12090877,3.9143038,7.808053,-0.026774608,-0.020226017,0.13679212
0.31004912,8.603564,4.4280763,-0.21746802,-0.35185838,-0.087964594,-0.013169296,5.086619,6.963059,-0.07444796,-0.10313411,0.080602944
0.17118542,3.751714,7.0365586,-0.1282817,0.1142318,-0.09407325,0.032919385,4.7528925,6.981434,-0.08790639,-0.04879263,0.036933895
-0.89423436,0.45010993,9.309854,0.057421334,0.018325957,-0.062308256,-0.19886905,3.677197,7.5635386,-0.05157446,-0.032012984,0.0121233575
-0.35194764,12.921507,7.311892,-0.1704314,-0.029932396,0.25350907,-0.23713869,5.9882746,7.500627,-0.081288695,-0.031492837,0.072469786
1.6136919,13.024457,6.969521,-0.047036625,0.04153884,-0.008552114,0.22556895,7.74732,7.3678503,-0.072725676,-0.013234917,0.05221431
0.11492168,12.89517,7.1945763,-0.07269296,0.061086524,-0.065973446,0.19790713,9.034283,7.3245316,-0.072717495,0.0053454433,0.02266737
0.8714894,12.443863,1.8112136,-0.33292156,-0.1777618,-0.01282817,0.3663027,9.886678,5.9462023,-0.1377685,-0.040431365,0.013793485
0.7338228,-8.590396,13.093889,0.1459968,0.27855456,0.08979719,0.45818272,5.2674093,7.733124,-0.06682718,0.03931512,0.032794412
3.0753522,9.956287,5.759252,0.31764993,0.039095376,-0.11911872,1.112475,6.4396286,7.239656,0.0292921,0.039260183,-0.005183872
0.2873042,8.054094,7.9786773,-0.111177474,-0.24678956,0.05131268,0.9061823,6.843245,7.4244113,-0.005825296,-0.032252256,0.008940266
-4.1659107,-3.5230677,11.176133,-0.13927728,-0.05009095,-0.07391469,-0.36184096,4.251667,8.362342,-0.039188292,-0.03671193,-0.011773473
-0.19033903,8.4826565,6.9228344,0.03359759,-0.23823744,-0.05497787,-0.3189655,5.3094144,8.002465,-0.02099182,-0.08709331,-0.022574572
-1.079785,-8.069656,12.182896,0.096516706,0.11056661,-0.115453534,-0.50917035,1.9646468,9.047573,0.008385312,-0.03767833,-0.045794312
1.745373,1.1025299,5.9783216,-0.2932153,-0.15210545,-0.19486602,0.054465473,1.7491176,8.28026,-0.06701484,-0.06628511,-0.08306224
0.08379706,1.1216835,11.206061,-0.1459968,0.039095376,-0.07086037,0.06179837,1.592259,9.01171,-0.08676033,-0.03993999,-0.08001177
1.0187328,6.4763155,6.194997,-0.25717425,0.06780604,-0.010995574,0.30103198,2.8132732,8.307531,-0.1293638,-0.01300348,-0.06275772
-2.2230163,-0.58298814,14.511256,0.099571034,0.010995574,0.19120082,-0.3299801,1.9642079,9.858462,-0.0721301,-0.007003716,7.32E-04
0.59855044,5.412093,7.467515,0.1881465,0.09040806,0.13744467,-0.09784746,2.8261793,9.260725,-0.007060945,0.017349228,0.034910105
-0.49081135,2.03148,11.972205,-0.042760566,-0.04337143,-0.04520403,-0.19608843,2.6275043,9.938595,-0.01598585,0.0021690633,0.014881572
-0.79487497,-1.3060371,11.287464,0.051923547,-0.004276057,-0.030543262,-0.34578508,1.644119,10.275812,9.91E-04,5.58E-04,0.0035253633
1.8626889,3.7098155,8.01459,0.0036651916,-0.059253927,0.115453534,0.2063334,2.1605432,9.710506,0.0016599222,-0.014395145,0.031507406
0.45729253,6.5337763,7.9846625,0.031154128,-0.016493361,-0.022602014,0.2690732,3.2538514,9.279045,0.009033473,-0.014919699,0.01798005
2.3511062,5.9483943,7.7907324,0.05497787,-0.049480084,0.051923547,0.7895814,3.9274871,8.906967,0.020519573,-0.023559796,0.026465924
-0.5363012,6.10282,8.030152,0.034208454,-0.02321288,-0.025045475,0.45811075,4.47132,8.687763,0.023941793,-0.023473067,0.013588075
-0.16400282,3.50152,8.153454,-0.005497787,-0.004276057,-0.02321288,0.30258235,4.22887,8.554186,0.016581897,-0.018673815,0.004387836
1.2737153,5.377377,7.848193,-0.03359759,-0.04886922,0.029321533,0.3184288,1.3443443,1.9620483,-0.008399397,-0.012217305,0.007330383
2.1045034,6.23091,7.6147585,-0.048258353,-0.05009095,0.043982297,0.7649475,2.5659857,3.3752258,-0.018364135,-0.021685716,0.016493361
-0.61411273,1.5454572,7.7823524,-0.014049901,-0.007941248,-0.18448131,0.4201824,2.3108535,4.4770074,-0.017285576,-0.0182496,-0.033750307
0.035913024,7.81228,6.3458314,0.0036651916,-0.08002335,-0.27855456,0.32411507,3.6862102,4.9442134,-0.012047884,-0.033693038,-0.09495137
-0.011971008,11.331757,8.136695,-0.032986723,-0.009773844,-0.035430185,0.24009356,5.5975966,5.742334,-0.017282594,-0.02771324,-0.08007108
-1.3455414,9.024943,5.199009,0.031154128,-0.13683382,-0.22052236,-0.15631518,6.4544334,5.6065025,-0.005173413,-0.054993384,-0.1151839
0.6907272,6.6726403,9.348161,0.12889257,0.004886922,0.3200934,0.055445403,6.508985,6.541917,0.028343083,-0.04002331,-0.0063645765
-0.10055647,-0.12569559,6.2392898,-0.16310102,-0.13255776,-0.040927973,0.016444936,4.850315,6.46626,-0.019517941,-0.06315692,-0.015005426
-0.17118542,11.603498,1.5741876,0.27000242,-0.13744467,-0.1301143,-0.030462652,6.538611,5.243242,0.052862145,-0.08172886,-0.043782644
-0.2621651,6.873753,7.630321,-0.0061086523,-0.13805555,0.28038713,-0.088388264,6.6223965,5.8400116,0.038119446,-0.09581053,0.037259802
2.742558,12.500127,7.2029557,-0.01282817,0.1020145,0.30298916,0.6193483,8.091829,6.1807475,0.025382541,-0.046354275,0.103692144
1.5741876,3.5625722,9.367314,0.29993483,0.36835176,0.14721853,0.8580581,6.959515,6.9773893,0.09402061,0.05732223,0.11457374
-1.5957354,1.423353,7.029376,-0.112399206,0.23518312,-0.39767328,0.24460971,5.5754747,6.990386,0.042415656,0.10178745,-0.013488017
3.7134068,17.055096,6.518214,0.19425514,0.2284636,-0.20708331,1.111809,8.44538,6.872343,0.08037553,0.13345648,-0.06188684
2.3906105,0.34237084,9.67018,0.16310102,-0.092240654,-0.16310102,1.4315094,6.419628,7.571802,0.1010569,0.0770322,-0.08719038
0.8678981,6.4272346,4.450821,0.089186326,0.027488936,0.06169739,1.2906065,6.42153,6.791557,0.09808926,0.064646386,-0.04996844
1.0486604,15.640122,13.8325,-0.49113566,0.29749137,0.22785273,1.23012,8.726178,8.551793,-0.04921697,0.12285763,0.019486856
0.7649474,16.399084,4.1922474,-0.18448131,-0.1600467,-0.24312437,1.1138268,10.644404,7.4619064,-0.083033055,0.05213155,-0.046165947
-1.7322049,-14.0312195,8.826224,1.0684034,0.7110472,0.047036625,0.40231884,4.475498,7.802986,0.20482606,0.21686046,-0.022865303
-1.7441759,14.510059,-2.1883004,1.527774,0.5204572,-0.19242255,-0.13430488,6.9841385,5.3051643,0.53556305,0.29275966,-0.065254614
-2.054225,3.7181952,10.985794,-0.15149458,-0.19120082,-0.4972443,-0.6142849,6.1676526,6.725322,0.36379865,0.17176953,-0.17325203
-0.46567222,-5.475539,4.687847,0.6969972,0.070249505,0.17287487,-0.5771317,3.2568545,6.215953,0.44709828,0.14638953,-0.0867203
1.5358804,17.122133,0.4225766,-0.047647487,-0.01282817,-0.047647487,-0.04887867,6.723174,4.7676086,0.32341185,0.1065851,-0.0769521
1.292869,9.380483,10.281899,0.049480084,0.09285152,0.18081611,0.28655824,7.3875012,6.146181,0.25492892,0.10315171,-0.012510046
-4.144363,-9.836577,11.234792,0.0018325958,0.31703907,0.08979719,-0.821172,3.0814815,7.418334,0.19165483,0.15662354,0.013066763
0.25139117,0.770933,16.973694,-0.25167647,-0.3323107,-0.058643065,-0.5530312,2.5038443,9.807174,0.080822006,0.03438998,-0.0048606936
-2.1057005,2.3989902,13.867216,0.12217305,-0.20708331,0.13561209,-0.9411985,2.4776306,10.822185,0.09115977,-0.025978342,0.030257503
-1.8986019,1.1145009,7.3968863,-0.13988814,-0.11911872,0.11789699,-1.1805494,2.1368482,9.96586,0.033397794,-0.049263436,0.052167375
2.0506337,4.2700586,4.7285485,0.06352998,-0.08124508,-0.08674286,-0.37275362,2.6701508,8.656532,0.04093084,-0.057258848,0.017439816
0.20231004,-0.5602432,6.1770406,0.03481932,0.13072516,0.19608775,-0.22898771,1.8625523,8.036659,0.03940296,-0.010262847,0.0621018
-0.19512744,-1.0893618,12.220005,-0.11178834,-0.012217305,-0.017104227,-0.22052264,1.1245737,9.082496,0.0016051382,-0.010751462,0.04230029
0.6500258,0.6703765,11.2312,0.06047566,-0.014049901,0.05009095,-0.0028855354,1.0110244,9.619672,0.01632277,-0.011576071,0.044247955
-0.01436521,4.2102036,7.513005,0.089186326,-0.014049901,-0.12034045,-0.0057554543,1.8108191,9.093005,0.034538656,-0.012194529,0.0031008534
-0.58777654,5.6467247,6.839037,0.0067195175,0.020158553,0.23945917,-0.15126073,2.7697954,8.529513,0.027583871,-0.004106259,0.062190432
0.91697925,5.7149596,7.6123643,-0.0036651916,0.015271631,-0.080634214,0.11579925,3.5060863,8.300226,0.019771606,7.38E-04,0.02648427
0.37948096,4.8267107,8.450335,0.005497787,-0.11728613,-0.12095132,0.18171968,3.8362424,8.337753,0.01620315,-0.028767873,-0.010374628
1.4903905,5.710171,7.0940194,0.026267206,0.080634214,-0.08307768,0.5088874,4.3047247,8.02682,0.018719165,-0.00141735,-0.02855039
-0.12210429,6.4344172,8.063671,-0.039095376,-0.021991149,0.031154128,0.3511395,4.8371477,8.036033,0.00426553,-0.0065607997,-0.01362426
0.4441244,3.7325604,8.034941,0.018936822,-0.014049901,0.032375857,0.3743857,4.561001,8.03576,0.007933353,-0.008433075,-0.0021242313
-0.12330139,6.8689647,8.169016,-0.004276057,0.0012217305,0.012217305,-0.030825347,1.7172412,2.042254,-0.0010690142,3.05E-04,0.0030543262
0.78888947,3.6128504,8.5473,-0.010995574,-0.009773844,-0.111177474,0.17410335,2.1911435,3.6685157,-0.0035506543,-0.0022143866,-0.025503624
1.3754689,4.759673,7.703344,-0.0061086523,0.021380283,0.14966199,0.47444472,2.8332758,4.6772227,-0.004190154,0.003684281,0.018287778
-0.49200845,3.7014358,8.503007,-0.069027774,-0.084910266,0.19730948,0.23283142,3.0503159,5.633669,-0.02039956,-0.018464357,0.06304321
-0.2681506,9.11712,7.013814,0.018325957,0.015882496,0.10567969,0.10758591,4.5670166,5.9787054,-0.01071818,-0.009877644,0.07370233
1.3180081,4.2700586,6.691794,-0.17898351,-0.05497787,0.14782938,0.41019145,4.492777,6.1569777,-0.05278451,-0.021152701,0.09223409
2.018312,8.716091,6.211756,-0.20586158,-0.1563815,-0.20830505,0.8122216,5.5486054,6.1706724,-0.09105378,-0.0549599,0.017099306
1.5717934,6.603208,6.6965823,0.28405234,0.050701816,-0.21074851,1.0021145,5.812256,6.30215,0.002722755,-0.02854447,-0.039862648
0.4405331,9.945514,8.48984,-0.14538592,0.010995574,0.4728097,0.8617192,6.8455706,6.8490725,-0.034304414,-0.01865946,0.08830544
-0.1592144,12.552799,7.9272017,-0.031154128,-0.0720821,-0.74464476,0.6064858,8.272378,7.1186047,-0.033516843,-0.032015122,-0.119932115
-0.2873042,1.804031,7.4687123,-0.15454891,-0.25228736,-0.13683382,0.38303828,6.655291,7.2061315,-0.06377486,-0.08708318,-0.12415754
0.80086046,7.7584105,7.0784574,0.0720821,0.03359759,0.07086037,0.4874938,6.931071,7.174213,-0.029810622,-0.05691299,-0.075403064
0.46327803,2.907758,12.648567,0.20158553,0.15515977,-0.015882496,0.48143986,5.9252424,8.542802,0.028038416,-0.0038947985,-0.06052292
-0.37588966,-1.6998832,7.4004774,-0.076358154,-0.16310102,0.28160888,0.2671075,4.018961,8.257221,0.0019392744,-0.04369635,0.025010027
2.8491,8.497022,7.3202715,0.064751714,-0.015882496,0.02687807,0.91260564,5.1384764,8.022984,0.017642384,-0.03674289,0.025477037
2.7700913,9.392453,4.7536874,-0.05009095,-0.08002335,-0.44776422,1.3769771,6.2019706,7.2056594,7.09E-04,-0.047563,-0.09283328
1.4808137,3.3925838,7.687782,0.13255776,0.03848451,0.23151793,1.4029362,5.499624,7.32619,0.03367123,-0.026051123,-0.011745483
1.2437878,2.5893292,9.352949,-0.07941248,-0.04886922,0.4202753,1.3631492,4.77205,7.83288,0.005400302,-0.03175565,0.09625971
1.4137762,9.478644,9.846154,0.116675265,-0.028099801,-0.24251351,1.3758059,5.9486985,8.336199,0.033219043,-0.030841686,0.011566408
0.93972415,13.218388,2.2625206,-0.07696902,-0.12339478,0.052534413,1.2667854,7.766121,6.8177795,0.0056720264,-0.05397996,0.021808408
0.06584055,15.5671,2.719813,-0.12461651,-0.23457226,-0.204029,0.96654916,9.716366,5.793288,-0.026900109,-0.09912804,-0.034650944
-1.5298948,-4.63278,6.7253127,6.11E-04,-0.22174409,0.22602014,0.34243816,6.1290793,6.026294,-0.020022366,-0.12978205,0.030516826
0.545878,0.0023942017,10.030508,-0.08979719,-0.18997909,0.065973446,0.39329812,4.5974083,7.0273476,-0.03746607,-0.14483131,0.039380983
-1.0606314,2.6719291,10.8385515,0.6114761,0.2657264,0.0012217305,0.029815733,4.1160383,7.9801483,0.12476947,-0.042191893,0.02984117
6.7253127,24.801535,7.2939353,0.119729586,0.1282817,0.10873401,1.70369,9.287413,7.808595,0.1235095,4.27E-04,0.04956438
0.41060558,4.8722005,6.9108634,0.08979719,0.31031954,0.2669481,1.3804189,8.18361,7.584162,0.11508142,0.07789977,0.10391031
3.5410242,9.697714,6.5924344,-0.32498032,-0.40744713,-0.5271767,1.9205703,8.562136,7.3362303,0.005065985,-0.04343696,-0.05386144
-0.676362,-0.676362,7.8146744,-0.06047566,-0.12767084,0.2125811,1.2713373,6.252511,7.455841,-0.011319425,-0.06449543,0.012749195
-2.5139117,7.2723875,8.091205,0.015882496,0.14477506,0.01160644,0.32502502,6.50748,7.614682,-0.004518945,-0.012177806,0.012463506
-0.25139117,1.2413936,10.484209,-0.15515977,-0.28710666,-0.2125811,0.18092097,5.1909585,8.332064,-0.042179152,-0.08091003,-0.043797646
-1.2270284,-0.5267244,14.5567465,-0.029932396,0.12217305,-0.14110987,-0.17106636,3.7615378,9.888234,-0.039117463,-0.03013926,-0.0681257
-0.08140286,1.2282255,9.124303,-0.1337795,0.02687807,-0.035430185,-0.14865048,3.1282096,9.697251,-0.06278297,-0.015884928,-0.059951823
-0.011971008,8.480263,13.934254,0.122783914,-0.057421334,0.12889257,-0.114480615,4.466223,10.756502,-0.016391251,-0.02626903,-0.012740724
-1.5167267,-3.655946,13.802573,0.06658431,0.069027774,0.18509217,-0.46504214,2.4356806,11.51802,0.0043526404,-0.0024448298,0.036717497
1.271321,0.45609543,10.311827,-0.029932396,0.06719518,-0.40317106,-0.03095135,1.9407843,11.216472,-0.0042186193,0.014965173,-0.073254645
0.37229836,1.0965444,10.606314,-0.007330383,-0.037873644,-0.039095376,0.06986108,1.7297244,11.063932,-0.0049965605,0.0017554685,-0.06471483
-0.17597382,1.8471266,9.982624,0.0720821,-0.03359759,-0.0983493,0.008402355,1.7590749,10.793606,0.014273105,-0.0070827957,-0.07312345
0.037110128,6.567295,8.602366,0.0720821,-0.014660766,0.021380283,0.015579298,2.96113,10.245796,0.028725354,-0.008977288,-0.049497515
0.6428431,4.011485,8.028955,-0.016493361,-0.018325957,0.06169739,0.17239526,3.2237186,9.691586,0.017420676,-0.011314455,-0.021698788
2.0266917,5.08289,8.033744,0.01038471,0.0018325958,-0.0036651916,0.6359694,3.6885114,9.277125,0.015661685,-0.008027692,-0.01719039
-0.08020575,4.107253,8.042124,0.009162978,-0.028099801,-0.076358154,0.45692563,3.7931967,8.968375,0.014037008,-0.01304572,-0.031982332
0.18429793,8.051522,6.063249,-0.0041996976,-0.016764237,0.0075339973,0.046074484,2.0128806,1.5158123,-0.0010499244,-0.004191059,0.0018834993
-1.4341129,7.838446,5.0577273,0.0011759142,0.012394372,0.005742127,-0.32397237,3.469272,2.401291,-4.93E-04,-4.47E-05,0.0028481563
0.0813517,6.9430532,5.7903214,0.008261944,0.005674863,-0.010140353,-0.22264135,4.337717,3.2485485,0.0016953875,0.0013851898,-3.99E-04
-0.40225625,8.427396,5.6610403,0.0053297924,0.010439603,-0.013805543,-0.26754507,5.360137,3.8516715,0.0026039886,0.003648793,-0.0037506141
-1.1180918,7.7953525,5.9100266,0.006551522,0.007873973,-0.0107512195,-0.48018175,5.9689407,4.36626,0.003590872,0.004705088,-0.0055007655
-0.3376156,7.249498,5.505424,0.004963274,-0.0023885528,0.001466075,-0.4445402,6.28908,4.651051,0.0039339727,0.002931678,-0.0037590554
-0.40225625,8.800875,4.8661995,0.00679587,0.0010322896,0.0107512195,-0.4339692,6.917029,4.7048383,0.0046494473,0.0024568308,-1.31E-04
-0.25861037,8.336419,4.274857,0.010461057,-0.001044651,0.0045203986,-0.3901295,7.2718763,4.597343,0.0061023496,0.0015814604,0.0010314847
0.32554975,10.840647,2.7426338,0.009361501,-0.0059315693,-0.036774054,-0.21120968,8.164069,4.1336656,0.0069171377,-2.97E-04,-0.0084199
-0.97683996,9.701056,4.8398643,0.014981457,-0.13519055,-0.27659956,-0.40261725,8.548316,4.310215,0.008933217,-0.034020234,-0.075464815
-1.4365069,8.345995,4.0162945,0.03587303,-0.2208338,-0.12950332,-0.66108966,8.497736,4.236735,0.01566817,-0.08072363,-0.088974446
-0.34240377,7.7857766,1.6102251,0.026221367,0.14837284,0.49418962,-0.58141816,8.319746,3.5801075,0.01830647,-0.02344951,0.056816578
0.34230846,9.801607,4.753677,0.0066736965,0.12955822,0.26377138,-0.35048652,8.690211,3.8734999,0.015398276,0.014802422,0.10855528
0.694241,10.10087,6.6737437,0.023289215,0.029498586,0.0029321518,-0.089304626,9.042876,4.5735607,0.01737101,0.018476464,0.0821495
-0.46210873,8.353178,6.3912406,0.0065515237,0.05258927,0.09712748,-0.18250565,8.870452,5.027981,0.014666138,0.027004667,0.085893996
0.76127577,8.472883,4.519055,0.025366157,0.12882517,0.033353213,0.053439707,8.77106,4.900749,0.017341143,0.05245979,0.0727588
-0.58660185,9.985953,-1.7223603,0.026832234,0.11123229,-0.102991804,-0.10657069,9.074783,3.2449718,0.019713916,0.06715292,0.028821148
-0.4429559,9.188719,4.4065323,0.027931793,0.020824308,-0.04618137,-0.190667,9.103268,3.5353618,0.021768386,0.055570766,0.010070518
-0.40943855,12.171765,-0.5612224,-0.026312996,0.029987277,-0.013072505,-0.2453599,9.870392,2.5112157,0.00974804,0.049174894,0.004284762
0.08853397,9.3203945,3.7984314,-0.007987056,0.045503244,-0.015393791,-0.16188642,9.732893,2.8330197,0.005314266,0.048256982,-6.35E-04
-0.77812976,7.927028,4.849441,-0.005665771,0.026199916,-0.10800089,-0.31594726,9.281426,3.337125,0.0025692566,0.042742714,-0.027476378
-0.4142267,8.836786,6.508551,0.024999639,-0.11295506,0.014416406,-0.34051713,9.170266,4.1299815,0.008176852,0.0038182698,-0.017003182
0.2704855,10.5916605,4.028265,0.011071922,-0.095606506,0.092851445,-0.18776648,9.525615,4.1045523,0.00890062,-0.021037925,0.010460474
0.5410186,7.5774894,2.136927,-0.021059563,0.0073852823,0.0916297,-0.005570203,9.038584,3.6126459,0.0014105742,-0.013932124,0.03075278
-0.90501696,8.772145,5.014633,0.03587303,0.0072631096,0.004764745,-0.23043188,8.971974,3.9631426,0.010026189,-0.008633316,0.024255771
-0.3831035,10.10087,5.3952956,0.013148864,0.026444266,-0.032131486,-0.26859978,9.254198,4.321181,0.010806858,1.36E-04,0.010158957
-0.05990015,7.862387,6.0081844,0.015714496,0.012150027,-0.033231042,-0.21642487,8.906245,4.742932,0.012033767,0.0031395662,-6.89E-04
-0.4788674,6.5480275,6.652197,0.01803578,-0.027434004,-0.012828159,-0.2820355,8.31669,5.220248,0.01353427,-0.0045038266,-0.0037234467
0.57932425,8.882275,19.020111,-0.035109453,-0.0039768014,0.039584037,-0.06669557,8.458086,8.670214,0.0013733394,-0.0043720705,0.007103424
2.0325422,6.0739956,20.889904,0.041004296,-0.017904516,-0.020402884,0.4581139,7.8620634,11.725136,0.011281079,-0.0077551818,2.27E-04
2.0828183,8.446548,4.3849854,0.10465638,-0.13348012,-0.004276053,0.86429,8.008184,9.890099,0.034624904,-0.039186418,-8.99E-04
0.19626842,8.075463,5.2324963,-0.09069812,0.02204603,0.051312648,0.6972846,8.025004,8.725698,0.0032941476,-0.023878306,0.012154004
-0.02638276,4.0078883,12.089195,-0.13858993,-0.0023885542,-0.039339684,0.51636773,7.0207253,9.566572,-0.032176875,-0.018505868,-7.19E-04
0.29921466,5.0373507,8.220332,-0.027901245,-0.014605844,0.03518581,0.46207947,6.5248814,9.230012,-0.031107968,-0.017530862,0.008256888
-0.28255135,6.4522634,4.5693307,-0.03633118,0.008118322,0.0013439022,0.27592176,6.5067267,8.064841,-0.03241377,-0.011118567,0.0065286416
0.15796286,1.7071596,14.126573,0.009117158,-0.05370119,0.01576031,0.24643204,5.306835,9.580275,-0.022031037,-0.021764223,0.008836558
-0.46929103,3.3758464,6.3194175,-0.04622719,0.0046974826,0.0194255,0.06750128,4.824088,8.76506,-0.028080076,-0.015148796,0.011483794
-1.5394531,6.9071417,0.635827,8.09E-04,-0.03195441,-0.059864737,-0.33423734,5.3448515,6.732752,-0.02085771,-0.0193502,-0.006353339
0.744517,4.2951803,7.4757667,0.012660162,0.08472075,0.03970621,-0.06454873,5.0824337,6.9185057,-0.012478243,0.0066675376,0.005161548
-0.9169875,3.0454607,12.704479,0.024755294,-0.22217768,-0.43298095,-0.2776584,4.5731907,8.364999,-0.0031698588,-0.05054377,-0.10437408
0.16275105,7.6205835,5.6849813,0.25273,-0.57220316,-0.81464916,-0.16755605,5.335039,7.6949944,0.060805112,-0.18095861,-0.28194284
-1.632823,7.7953525,6.0177608,0.13336703,-0.5246779,-0.69724107,-0.5338728,5.9501176,7.2756863,0.07894559,-0.26688844,-0.3857674
-2.0470018,7.323715,6.690502,0.05309941,-0.050891206,0.025900666,-0.91215503,6.293517,7.1293902,0.072484046,-0.21288913,-0.28285038
-0.6416661,7.065152,5.4288125,-0.015928298,0.48520368,0.80230975,-0.8445328,6.486426,6.7042456,0.05038096,-0.03836593,-0.011560351
-0.04553555,7.8264756,4.610031,0.008628462,0.32405755,0.20048577,-0.6447835,6.8214383,6.1806917,0.039942835,0.05223994,0.04145118
0.58650655,6.861654,4.542996,0.031596974,0.033408124,-0.07562505,-0.33696097,6.8314924,5.771268,0.03785637,0.047531985,0.012182122
-0.15805818,7.7642293,5.943544,-0.022036945,0.04550324,0.015271623,-0.29223529,7.064677,5.814337,0.02288304,0.047024798,0.012954498
-0.28494543,7.419479,6.1709833,0.003619373,0.03609593,-0.073059425,-0.2904128,7.1533775,5.9034986,0.018067123,0.04429258,-0.008548982
-0.42859137,7.603825,5.3426247,0.011194095,-0.04331649,-0.013439024,-0.32495746,7.2659893,5.76328,0.016348867,0.022390313,-0.009771492
-0.7422183,7.8097177,4.851835,-0.045738496,-0.050524693,0.01246164,-0.42927268,7.4019213,5.5354185,8.27E-04,0.004161563,-0.0042132093
0.4476488,8.3412075,6.544462,0.0051668957,0.08871174,-0.003054324,0.1119122,2.0853019,1.6361156,0.0012917239,0.022177935,-7.64E-04
0.8618279,10.167906,5.1080036,0.041859508,-0.14239876,-0.32998914,0.29939112,4.1059527,2.5040874,0.01143367,-0.018966239,-0.083069965
0.28006187,9.997925,0.77947295,0.040271256,-0.05223511,-0.08710931,0.29455882,5.5789456,2.072934,0.018643066,-0.027283456,-0.0840798
-0.761371,9.502345,8.07908,0.03575086,-0.08277835,-0.112887815,0.030576348,6.5597954,3.5744703,0.022920014,-0.04115718,-0.0912818
-1.0486629,9.14323,3.8846188,9.32E-04,-0.08534398,-0.0803898,-0.23923346,7.205654,3.6520073,0.017422903,-0.05220388,-0.0885588
-0.91938156,8.00364,3.7744904,0.011194094,-0.07239365,0.12522727,-0.4092705,7.4051504,3.6826282,0.0158657,-0.05725132,-0.035112284
-0.5147789,9.234206,4.1766987,0.013393209,-0.033420477,0.1626122,-0.4356476,7.8624144,3.8061457,0.015247578,-0.051293608,0.014318839
-0.1269349,10.299581,1.5192494,-0.0012675452,0.120395266,0.1440419,-0.35846943,8.471706,3.2344217,0.011118798,-0.00837139,0.046749603
-0.2945218,9.509527,3.1065369,0.024510946,0.10561233,-0.046670064,-0.3424825,8.731161,3.2024505,0.014466835,0.02012454,0.023394685
0.03825791,9.667539,3.7625198,-0.0050549065,0.08972985,-0.14062105,-0.2472974,8.965256,3.3424678,0.009586399,0.03752587,-0.01760925
-1.6615523,9.3610935,-0.19253117,0.024999639,-0.13140318,-0.19095631,-0.60086113,9.064215,2.458718,0.013439709,-0.00470639,-0.060946014
-0.17481686,9.782455,0.9398775,-0.005177081,-0.110633776,0.096394464,-0.49435008,9.243774,2.0790079,0.008785512,-0.031188237,-0.021610893
0.07177529,9.772879,6.623468,-0.009086614,-0.01594975,0.14245364,-0.35281873,9.376051,3.215123,0.004317481,-0.027378615,0.019405238
0.27287957,10.258881,6.328994,0.0076510813,0.04269327,0.06487383,-0.19639415,9.596758,3.9935906,0.005150881,-0.009860644,0.030772386
-0.1412995,8.836786,5.0553336,-0.01690568,0.03243074,-0.025656318,-0.18262048,9.406765,4.2590265,-3.63E-04,7.12E-04,0.01666521
0.110080875,8.750598,4.7943764,0.0091171535,0.011416987,-0.06487383,-0.10944514,9.242723,4.392864,0.0020068442,0.0033883974,-0.0037195496
0.10529266,7.9413924,5.8789034,3.21E-04,-0.022669263,-0.030543238,-0.05576069,8.917391,4.764374,0.0015853096,-0.0031260177,-0.010425472
-0.6344839,7.376385,8.593811,-0.008353573,-0.00971893,0.06120864,-0.20044148,8.53214,5.721733,-8.99E-04,-0.004774246,0.0074830567
-0.90980524,8.994797,-2.4860778,0.025732677,0.043914996,0.010140356,-0.3777824,8.647804,3.6697803,0.0057586115,0.0073980647,0.008147381
0.9168922,8.379514,5.864538,-0.005421422,0.032675087,-0.0849102,-0.054113746,8.580731,4.2184696,0.002963603,0.01371732,-0.015117014
-0.47407925,6.7467375,10.228981,-0.014217879,-0.01802669,-0.056443904,-0.15910512,8.122232,5.7210975,-0.0013317675,0.005781317,-0.025448736
-0.3304333,8.274173,4.5214496,0.033429574,-0.041117378,-0.025045453,-0.20193717,8.160217,5.4211855,0.0073585683,-0.005943356,-0.025347915
-0.39028573,9.128866,4.9978747,0.0012980874,-0.0649411,0.040072724,-0.2490243,8.40238,5.3153577,0.005843448,-0.020692792,-0.008992754
0.45961928,7.4314494,9.561027,0.059574578,-0.06213112,0.06035343,-0.07186341,8.159647,6.376775,0.01927623,-0.031052373,0.008343793
-0.04314147,6.083572,6.5109453,-0.115987934,-4.34E-04,0.053633913,-0.06468293,7.6406283,6.4103174,-0.01453981,-0.023397727,0.019666323
-0.11735852,6.7227964,10.214616,-0.09546288,0.0016431524,0.010140352,-0.07785183,7.4111705,7.361392,-0.03477058,-0.017137507,0.017284831
-0.31606865,3.7469316,10.724559,-0.034132067,0.019969093,-0.051556982,-0.13740604,6.4951105,8.202184,-0.03461095,-0.007860857,7.44E-05
-0.17002867,4.6327486,10.444449,0.009972366,4.21E-04,-0.0343306,-0.1455617,6.02952,8.762751,-0.023465121,-0.0057902867,-0.008526867
-0.49802017,4.675842,9.991965,-0.014340049,-0.0016555167,0.052045684,-0.23367631,5.6911006,9.070054,-0.021183852,-0.004756594,0.00661627
-0.36155653,4.580078,8.378342,-0.0321773,0.029009892,-6.11E-04,-0.26564637,5.413345,8.897126,-0.023932215,0.0036850274,0.004809486
-0.016806379,4.309545,9.450899,0.0042302366,-0.05260163,-0.0054977858,-0.20343637,5.137395,9.035569,-0.016891602,-0.010386637,0.0022326682
-0.39028573,2.509183,11.5194,-0.003100139,0.041471537,0.109466955,-0.2501487,4.480342,9.656527,-0.013443736,0.0025779065,0.02904124
0.2393622,6.8736243,3.3459466,0.15804598,0.2860618,0.43237007,-0.12777099,5.0786624,8.078881,0.029428693,0.07344888,0.12987345
-0.9002287,7.3835673,6.3984222,-0.047937613,-0.20617303,-0.4886918,-0.32088542,5.6548886,7.6587667,0.010087116,0.0035434067,-0.02476786
-0.6847599,8.085039,4.2317634,0.030253073,-0.090230905,-0.13671152,-0.41185403,6.2624264,6.802016,0.015128605,-0.019900171,-0.052753776
0.0813517,8.338814,7.032859,-0.021548247,-0.102448195,-0.4004829,-0.28855258,6.781523,6.8597264,0.0059593916,-0.04053718,-0.13968605
-1.0941508,7.395538,4.4807496,0.0074067377,-0.3296899,-0.54366964,-0.48995215,6.935027,6.264982,0.006321228,-0.11282536,-0.24068195
-0.6273015,7.7762,6.87006,0.110276364,-0.12480584,0.026022833,-0.5242895,7.1453204,6.4162517,0.032310013,-0.115820475,-0.17400575
-0.18678738,7.7402883,7.032859,-0.0037924524,-0.022058398,0.015271617,-0.046696845,1.9350721,1.7582147,-9.48E-04,-0.0055145994,0.0038179043
-1.3694721,7.9413924,5.0074515,-0.0011453726,0.016792597,0.045204,-0.37739065,3.4366522,2.570524,-9.97E-04,6.22E-05,0.014164427
-1.1803384,7.8504167,4.698612,0.0032528539,-0.030610504,-0.029199336,-0.5781276,4.5400934,3.102546,6.51E-05,-0.007605976,0.003323486
-0.6751835,9.066619,5.773563,0.0028863351,-0.0025107255,0.00916297,-0.6023916,5.671725,3.7703001,7.70E-04,-0.0063321632,0.004783357
0.5529891,8.9157915,4.0689645,0.0066736965,5.49E-05,-0.01160643,-0.31354642,6.4827414,3.8449662,0.0022462546,-0.0047353962,6.86E-04
-1.1875206,9.832731,5.605976,0.022189662,-0.09243001,-0.11349867,-0.53204,7.320239,4.2852187,0.0072321063,-0.02665905,-0.027860235
-1.2641319,7.5104547,4.152758,0.021700969,-0.12248456,-0.029688027,-0.715063,7.367793,4.252104,0.010849322,-0.050615426,-0.028317183
1.3143125,10.388163,2.8048804,0.016325358,0.06444006,0.15039489,-0.20771909,8.122886,3.890298,0.012218331,-0.021851555,0.016360834
-0.65363663,8.79848,3.5087454,0.029275695,0.051734064,0.07342593,-0.3191985,8.291784,3.7949097,0.016482672,-0.0034551509,0.03062711
-0.5554785,12.195706,7.176505,0.00594066,0.21153624,0.07574722,-0.37826848,9.267765,4.6403084,0.013847169,0.050292697,0.04190714
-1.3598958,10.716153,4.514267,-0.055390153,-0.11356593,-0.44544256,-0.62367535,9.629862,4.608798,-0.0034621619,0.009328041,-0.07993028
-0.58660185,8.954097,1.6700777,0.050533783,-0.1458196,0.022113303,-0.61440694,9.46092,3.8741179,0.010036824,-0.02945887,-0.054419387
-0.9121992,10.814311,0.10673118,0.04222602,-0.03048833,0.1959654,-0.688855,9.799268,2.9322712,0.018084124,-0.029716235,0.008176807
0.36146122,11.288343,1.7466888,-0.007864885,0.043304127,0.18167117,-0.42627594,10.171536,2.6358757,0.011596872,-0.011461144,0.0515504
0.99350333,10.625177,4.076147,-0.017027853,0.13811032,-0.03457494,-0.07133111,10.284946,2.9959435,0.0044406904,0.025931722,0.030019064
-0.06468834,9.789638,3.0035906,0.013393213,0.077512555,-0.12889245,-0.069670424,10.161119,2.9978552,0.006678821,0.038826928,-0.009708814
-0.588996,9.13126,4.7752233,0.004108063,0.0020096735,-0.027122393,-0.19950181,9.903654,3.4421973,0.0060361316,0.029622614,-0.014062209
-0.03356506,8.800875,1.4809439,-0.028756456,-0.018515382,0.04068359,-0.15801762,9.627959,2.951884,-0.0026620151,0.017588116,-3.76E-04
-0.46929103,8.185592,1.071553,-0.01971566,0.04330413,-0.04239401,-0.23583597,9.267367,2.4818013,-0.0069254264,0.02401712,-0.010880321
-0.14608769,9.291664,4.509479,-0.010797035,0.025344701,-0.08319977,-0.2133989,9.273441,2.9887207,-0.007893329,0.024349015,-0.028960183
0.18429793,8.015611,2.7833333,-0.101205006,-0.049058616,0.10531309,-0.11397469,8.958983,2.9373739,-0.031221248,0.0059971064,0.0046081357
-0.6296956,7.7043767,7.765453,-0.026190823,0.010195261,0.061208647,-0.24290492,8.645331,4.144394,-0.029963642,0.007046645,0.018758263
-0.10538803,3.131648,9.177971,-0.042562,0.021435171,0.030787583,-0.20852569,7.2669106,5.402788,-0.033113234,0.0106437765,0.021765593
-0.18199919,5.0708685,10.154764,-0.037552908,0.030475968,-0.017348558,-0.20189406,6.7179003,6.590782,-0.034223154,0.015601825,0.011987056
0.7157878,7.3045626,8.126962,0.027320923,0.06847177,0.03481929,0.027526408,6.864566,6.974827,-0.018837135,0.028819311,0.017695114
0.41891962,3.0885544,11.603193,-0.019104794,0.022656897,-0.061086472,0.1253747,5.9205627,8.131918,-0.018904049,0.027278708,-0.0020002834
-1.8530802,2.1620383,10.011118,0.010461058,0.040982842,0.07024945,-0.369239,4.9809318,8.601718,-0.011562772,0.030704742,0.016062152
-0.541114,3.019126,13.585506,-0.030100355,0.013493931,-0.038484477,-0.41220775,4.4904804,9.847665,-0.016197167,0.02640204,0.0024254946
-0.14608769,5.2408495,6.812602,0.0021532972,-0.011429351,0.034208428,-0.34567773,4.678073,9.0889,-0.011609551,0.016944192,0.010371228
-0.08623521,8.264596,2.4505537,0.27924153,-0.05125773,-0.10005964,-0.2808171,5.5747037,7.429313,0.06110322,-1.06E-04,-0.01723649
0.41891962,7.783382,5.148703,-0.06968439,-0.0409952,-0.0026878063,-0.10588291,6.126873,6.8591604,0.028406318,-0.010328516,-0.013599319
-0.023988679,7.895905,5.4240246,-0.0010231987,0.031209005,0.030543234,-0.08540936,6.569131,6.5003767,0.021048939,5.59E-05,-0.0025636815
-0.7757357,8.492035,4.248522,0.010827579,0.02815468,-0.039095342,-0.25799096,7.049857,5.937413,0.018493598,0.0070805685,-0.011696597
-1.0127516,8.015611,5.0816684,0.0022754704,0.0053083417,0.0013439022,-0.4466811,7.2912955,5.723477,0.014439067,0.006637512,-0.008436472
0.7588816,7.7426825,6.6737437,-0.0018784087,-0.0064202603,0.024801109,-0.14529043,7.4041424,5.9610434,0.010359698,0.0033730688,-1.27E-04
1.0940554,8.073069,6.5660095,9.32E-04,-9.22E-04,0.012095122,0.16454601,7.571374,6.1122847,0.008002665,0.0022991821,0.0029284726
-0.66081893,7.8264756,5.5963993,-0.010430515,0.005063997,-9.77E-04,-0.041795224,7.6351495,5.9833136,0.00339437,0.002990386,0.0019520087
-0.3591625,8.463306,7.492526,-0.024154611,-0.013099047,0.0755436,-0.08979063,2.1158266,1.8731315,-0.0060386527,-0.0032747618,0.0188859
-0.6273015,8.168833,7.1980515,0.014370591,-0.026090106,-0.06352994,-0.22416835,3.6290781,3.2043614,-9.36E-04,-0.008978598,-0.0017180592
-0.1269349,7.172887,4.152758,0.0094836755,-0.061764605,-0.061819512,-0.19985998,4.5150304,3.4414606,0.0016686628,-0.0221751,-0.016743422
-0.09102343,9.789638,4.2006397,0.037339106,-0.024379684,0.09529489,-0.17265084,5.833682,3.6312554,0.010586274,-0.022726245,0.011266157
-0.46929103,8.999584,1.5240376,0.031596974,0.04635845,0.15137227,-0.24681088,6.6251574,3.104451,0.015838949,-0.005455071,0.046292685
-0.60814875,8.307691,5.9698787,-0.008353576,0.07091521,-0.020036362,-0.33714536,7.0457907,3.820808,0.009790817,0.013637498,0.029710423
0.54820096,10.354645,2.1321387,0.0076510804,0.04574759,-0.078190684,-0.115808785,7.873004,3.3986406,0.009255883,0.021665022,0.0027351454
-0.96486944,9.997925,4.171911,0.030741768,-0.027556181,-0.05290088,-0.32807395,8.404234,3.591958,0.014627354,0.009359721,-0.011173861
-0.5147789,9.0211315,5.6370993,-0.03657553,-0.018148864,0.10225874,-0.3747502,8.558458,4.1032434,0.0018266328,0.002482575,0.01718429
-1.4269305,9.605291,3.1424484,0.011316265,0.023145596,0.09431751,-0.63779527,8.820167,3.8630447,0.004199041,0.00764833,0.036467597
0.08613987,8.89185,4.121635,-0.022036944,0.05527708,-0.055833034,-0.4568115,8.838087,3.9276924,-0.002359955,0.019555517,0.013392439
-0.10538803,8.195168,3.843919,0.021700978,0.017769987,-0.040683594,-0.3689556,8.677357,3.906749,0.0036552781,0.019109134,-1.27E-04
0.0813517,8.008428,4.298798,0.0142484205,7.88E-04,-0.021135919,-0.25637877,8.510124,4.004761,0.0063035637,0.014528836,-0.005378906
0.20823891,9.418552,1.6102251,0.01131627,-0.014483675,0.019303326,-0.14022435,8.737231,3.4061272,0.00755674,0.007275708,7.92E-04
0.15317464,8.266991,4.4568086,0.02096793,-0.0012889975,0.033597555,-0.06687461,8.619671,3.6687975,0.010909538,0.0051345318,0.008993128
-0.15087591,9.540651,3.518322,-0.0040775263,0.03072031,-0.09272927,-0.087874934,8.849916,3.6311786,0.0071627717,0.011530977,-0.01643747
0.5410186,13.119828,-0.25717184,-0.005665771,0.0062857256,-0.064629495,0.069348454,9.917395,2.659091,0.003955636,0.010219664,-0.028485477
-0.86431736,8.441759,-0.3361771,-0.086177744,-0.058465928,0.025778491,-0.164068,9.548486,1.910274,-0.01857771,-0.0069517335,-0.014919485
-0.11735852,6.291858,12.230447,0.04796814,-0.058465924,0.034208428,-0.15239063,8.734329,4.4903173,-0.0019412469,-0.01983028,-0.0026375065
0.122051366,10.366615,-4.4468446,0.041737337,-0.019859284,0.04239401,-0.08378013,9.142401,2.2560267,0.0089783985,-0.019837532,0.008620372
0.28724417,9.5957155,-4.530638,0.068615384,0.0095843915,0.076724604,0.008975945,9.25573,0.5593605,0.023887645,-0.012482051,0.02564643
1.3478298,9.140837,8.067109,-0.050869767,0.03548507,0.03420842,0.3436894,9.227007,2.4362977,0.0051982924,-4.90E-04,0.027786927
0.47398388,8.621317,5.5006356,-0.005543598,0.053688828,-0.04569268,0.37626302,9.075584,3.202382,0.0025128198,0.013054504,0.009417025
0.0813517,7.0771227,4.490326,-0.050869755,-0.0026329001,-0.003787363,0.30253518,8.575969,3.524368,-0.010832824,0.0091326535,0.0061159283
-0.5626609,7.39075,5.2612257,-0.020815212,0.04183805,0.0054977797,0.086236164,8.279664,3.9585824,-0.013328421,0.017309003,0.005961391
-0.3543743,6.4833865,7.346486,-0.056367543,0.011172643,-0.09004146,-0.023916453,7.8305945,4.805558,-0.0240882,0.015774913,-0.01803932
1.814679,6.9071417,16.865423,-0.070661776,-0.025967931,0.042027496,0.43573242,7.5997314,7.820524,-0.035731595,0.0053392015,-0.0030226158
-0.67997175,3.4931574,6.573192,-0.015561788,0.0049418216,0.05790997,0.15680638,6.5730877,7.5086913,-0.030689143,0.0052398564,0.01221053
-0.23945756,2.703105,12.797849,-0.035720315,0.0044531333,0.01380554,0.05774039,5.605592,8.83098,-0.031946935,0.0050431755,0.0126092825
0.18669203,4.592048,10.104487,0.009850194,-0.012406735,-0.043982267,0.0899783,5.3522058,9.149357,-0.021497652,6.81E-04,-0.0015386045
0.057410687,4.165899,13.346097,-0.01311832,0.005552687,0.103113964,0.081836395,5.055629,10.198542,-0.019402819,0.0018986954,0.024624538
-0.17002867,4.1563225,14.107421,0.003985896,0.050512325,-0.03225366,0.01887013,4.830802,11.175761,-0.01355564,0.014052103,0.010404988
-1.3383489,5.475471,7.3847914,0.038438663,-0.05919897,-0.14685188,-0.32043463,4.991969,10.228019,-5.57E-04,-0.0042606657,-0.028909229
-0.177211,5.101991,12.970223,-0.0076205386,0.036828965,0.07782416,-0.28462872,5.0194745,10.91357,-0.0023229334,0.006011742,-0.0022258814
0.59368885,8.621317,5.610764,0.26653555,0.14812852,0.15002838,-0.06504932,5.919935,9.587869,0.06489169,0.04154094,0.03583768
-0.45492643,7.599036,5.191797,-0.0024892748,-0.014117157,-0.13964368,-0.16251859,6.33971,8.488851,0.048046447,0.027626416,-0.008032661
