Accel x,Accel y,Accel z,Gyro x,Gyro y,Gyro z,AccelLPF x,AccelLPF y,AccelLPF z,GyroLPF x,GyroLPF y,GyroLPF z
0.35427898,7.534396,10.875387,0.017935423,-0.10531872,-0.2880149,0.088569745,1.883599,2.7188468,0.004483856,-0.02632968,-0.07200372
-0.6009666,4.355033,6.834149,-0.03855502,-0.2705431,-0.29522893,-0.08381434,2.5014575,3.7476723,-0.006275863,-0.08738303,-0.12781003
-1.0546483,8.737431,3.0059845,-0.024301512,0.08015146,0.37701315,-0.32652283,4.0604506,3.5622504,-0.010782275,-0.045499407,-0.0016042292
-0.8870613,6.356499,8.446574,0.053714648,-0.11177642,0.030856483,-0.46665746,4.634463,4.7833314,0.0053419545,-0.06206866,0.0065109488
1.0820849,7.5762925,10.461208,0.045860678,0.10592413,0.16483948,-0.079471886,5.3699203,6.2028008,0.015471635,-0.020070463,0.046093084
1.372968,8.184394,6.3541317,-0.013655009,-0.13615282,-0.023481378,0.28363806,6.073539,6.2406335,0.008189974,-0.049091052,0.028699469
0.09571628,8.925367,2.6121554,0.0701789,0.037449095,0.21446498,0.23665762,6.786496,5.333514,0.023687206,-0.027456015,0.07514085
0.10768677,6.1960945,3.4225578,0.07780018,0.09492856,0.05982894,0.2044149,6.638896,4.855775,0.03721545,0.0031401291,0.071312875
1.2676276,4.6183834,4.6243954,-0.03622792,0.020403069,-0.110282354,0.47021806,6.133768,4.79793,0.018854607,0.007455864,0.025914066
-1.4951625,6.2595387,7.678069,-0.010862481,0.10220076,0.07443151,-0.021127075,6.1652107,5.5179644,0.011425335,0.03114209,0.038043424
0.61164457,14.89625,5.5437293,-0.043616462,0.061825514,-0.1256994,0.13706583,8.347971,5.5244055,-0.0023351144,0.038812947,-0.0028922819
-0.020397425,7.114232,9.452095,0.035330504,0.04623392,0.05878174,0.097700015,8.039536,6.5063276,0.0070812907,0.04066819,0.012526223
0.8187341,9.781258,11.366178,0.053656444,0.01790142,-0.04320359,0.27795854,8.474967,7.72129,0.018725079,0.034976497,-0.00140623
-0.907411,4.655492,-1.2770579,-0.16654572,-0.02683714,-0.15711533,-0.01838383,7.520098,5.471703,-0.027592622,0.019523088,-0.040333502
-0.26818675,5.39886,10.634781,0.16401935,-0.13237129,-0.049661305,-0.08083456,6.9897885,6.7624726,0.020310372,-0.018450506,-0.04266545
1.132361,8.5064,19.407957,0.018982623,-0.059242066,0.04231747,0.22246432,7.3689413,9.923843,0.019978434,-0.028648395,-0.021419723
-1.6531727,14.689161,-6.625475,0.0047291094,0.0037642727,-0.0060862857,-0.24644494,9.198997,5.786514,0.016166102,-0.02054523,-0.017586363
-0.97085464,7.7666235,13.742321,-0.11267328,-0.003566105,0.029809285,-0.42754737,8.840903,7.7754655,-0.016043745,-0.016300447,-0.005737452
-0.087432325,7.2554836,-2.2514563,-5.65E-04,0.0134799285,-0.018652648,-0.3425186,8.444549,5.268735,-0.012174072,-0.008855353,-0.00896625
-0.52315825,8.008428,4.5058875,0.034748748,0.07072668,0.03929223,-0.3876785,8.335518,5.078023,-4.43E-04,0.011040154,0.0030983705
-0.6356809,10.971125,1.9322314,0.10520182,-0.032247655,-0.08037906,-0.4496791,8.994419,4.291575,0.02596793,2.18E-04,-0.017770987
4.043585,20.302124,-1.594276,-0.05903353,-0.007405822,-0.06327486,0.6736368,11.821345,2.8201122,0.004717564,-0.0016878045,-0.029146954
0.25851494,22.276058,-11.598017,0.07070248,0.11395263,-0.12761928,0.56985635,14.435023,-0.78442,0.021213792,0.027222304,-0.053765036
-2.0865047,0.8177519,-6.559637,-0.36510584,-0.031549525,-0.18178262,-0.09423393,11.030705,-2.2282243,-0.07536612,0.012529347,-0.08576943
-3.282357,2.1524625,11.524188,-0.078290366,0.02808252,0.103753015,-0.8912647,8.811145,1.2098789,-0.076097175,0.016417641,-0.03838882
1.1922135,12.6721325,7.4386587,-0.044140078,-0.18985076,0.030216541,-0.37039512,9.776392,2.7670739,-0.0681079,-0.03514946,-0.021237478
-1.2868758,13.168906,0.7471528,0.1880467,-0.053307943,0.1635014,-0.5995153,10.62452,2.2620935,-0.004069254,-0.03968908,0.024947241
-1.144427,14.467707,0.78665507,-0.08149008,0.111974604,0.09735348,-0.7357432,11.585317,1.8932339,-0.02342446,-0.0017731562,0.0430488
2.4311595,15.874239,9.6125,-0.11523309,0.12221384,-0.030753586,0.05598247,12.657547,3.8230505,-0.046376616,0.029223593,0.024598204
-1.3766544,29.096846,-8.269022,-0.0679929,0.1826022,-0.07409588,-0.30217674,16.767372,0.8000324,-0.051780686,0.06756824,-7.53E-05
-1.851883,-6.232869,15.126109,-0.37674135,-0.03370209,-0.05530454,-0.6896033,11.017312,4.3815517,-0.13302085,0.04225066,-0.013882623
-0.6763806,21.123299,5.1630673,0.28613403,0.025813594,0.026609521,-0.68629766,13.543809,4.5769305,-0.028232127,0.038141392,-0.0037595872
-1.1791413,5.020592,1.6581072,0.015550144,-0.018401392,0.027482186,-0.80950856,11.413005,3.8472247,-0.01728656,0.024005696,0.004050856
-1.3479252,8.459715,21.246622,0.088155754,-0.0806514,0.0096216565,-0.9441127,10.674683,8.197074,0.009074019,-0.0021585785,0.0054435562
1.3155096,6.800605,4.255704,0.010139624,-0.025964469,0.0038039098,-0.37920713,9.706163,7.2117314,0.00934042,-0.008110051,0.005033645
1.8865023,4.3334856,3.374676,0.066106476,-0.018808633,0.08135463,0.18722022,8.362994,6.2524676,0.023531934,-0.010784697,0.024113894
-1.5969114,5.359358,3.7230172,-0.064153135,0.016854241,0.021955322,-0.2588127,7.6120853,5.620105,0.0016106665,-0.0038749622,0.023574252
-0.8116472,8.623711,-1.2327671,0.038006682,-0.026139013,0.0070036715,-0.39702132,7.8649917,3.9068868,0.01070967,-0.009440975,0.019431606
-0.8942436,7.199222,5.705331,0.015259253,-0.023637377,-0.003119228,-0.2235609,1.7998055,1.4263327,0.0038148132,-0.005909344,-7.80E-04
0.14240122,8.504005,6.2176685,0.010139627,0.012839972,0.047495272,-0.13207036,3.4758554,2.6241667,0.005396017,-0.0012220154,0.011288963
-0.44774413,9.053452,4.0976934,-0.015574869,0.003996987,0.08595067,-0.2109888,4.8702545,2.9925485,1.53E-04,8.27E-05,0.02995439
-0.87149954,9.551424,2.2769816,-0.002135844,-0.065583415,-0.08125174,-0.37611648,6.040547,2.8136568,-4.19E-04,-0.016333804,0.0021528583
0.14240122,6.865245,5.769972,0.013572106,-0.034574747,0.060352523,-0.24648705,6.2467213,3.5527356,0.0030787846,-0.02089404,0.016702775
-0.61652815,7.049591,5.4563446,-0.0026012664,0.11296361,0.30144045,-0.33899733,6.4474387,4.028638,0.0016587719,0.012570374,0.0878872
-1.1013331,5.91,3.712244,0.0111868195,0.18940899,0.1424993,-0.5295813,6.313079,3.9495394,0.0040407837,0.056780025,0.10154022
-3.7815268,7.364415,9.583771,0.034516048,-0.14103976,-0.4549264,-1.3425677,6.575913,5.358097,0.0116596,0.0073250793,-0.037576437
0.5458068,5.6478457,9.656791,0.0044963933,-0.23668373,-0.042214572,-0.87047404,6.343896,6.4327707,0.009868798,-0.053677123,-0.03873597
-0.48964092,5.582009,11.299143,0.004263694,-0.0151434485,0.32622412,-0.77526575,6.1534243,7.6493635,0.0084675215,-0.044043705,0.052504048
-0.5854048,11.183002,9.143257,0.07349502,0.04227784,0.025504146,-0.7278005,7.410819,8.022837,0.024724398,-0.022463318,0.04575407
-0.059900165,9.071407,4.739312,-0.0016122428,0.024010073,-0.025692135,-0.5608254,7.825966,7.201956,0.018140238,-0.01084497,0.027892519
-0.32803917,9.666341,-1.3369105,0.069829844,-0.014096249,-0.07898281,-0.50262886,8.286059,5.0672393,0.03106264,-0.011657789,0.0011736862
-1.4317186,-3.790888,3.3351731,0.042311825,-0.019215882,-0.04204004,-0.7349013,5.266823,4.634223,0.033874936,-0.0135473125,-0.009629745
1.0737057,9.899766,-3.069041,-0.12314527,-0.021368448,0.02736583,-0.28274956,6.4250584,2.708407,-0.0053801164,-0.015502596,-3.81E-04
0.45243698,12.137052,0.092366606,-0.02453422,-0.01258363,0.015904844,-0.09895292,7.853057,2.0543969,-0.010168642,-0.014772855,0.0036905725
-0.5482962,5.933941,4.3538623,-0.03337722,-9.48E-04,-0.003759182,-0.21128875,7.3732777,2.6292632,-0.015970785,-0.011316668,0.0018281338
-0.12573786,8.979235,6.916745,0.07023707,0.024184607,0.022711623,-0.18990102,7.774767,3.7011337,0.005581178,-0.0024413494,0.0070490064
0.005937636,3.2800825,12.803834,0.056856215,-0.0031006848,-0.0567008,-0.14094135,6.651096,5.9768085,0.018399937,-0.0026061833,-0.008888445
0.8378869,8.638076,1.3983474,-0.010687955,-0.01584158,-0.0049809106,0.103765726,7.147841,4.8321934,0.011127964,-0.0059150327,-0.007911561
0.34350553,12.679314,8.993626,-0.04763072,-0.01427078,0.010145263,0.16370067,8.530709,5.8725514,-0.0035617072,-0.00800397,-0.0033973549
-0.3052953,4.334683,10.151173,-0.069854565,0.06351265,0.017591994,0.04645168,7.481703,6.942207,-0.020134922,0.009875187,0.0018499824
-1.003175,3.9540212,20.051968,0.12073523,-0.0018207817,-0.014114791,-0.21595499,6.5997825,10.219646,0.015082616,0.0069511947,-0.0021412107
0.16634223,4.6818275,-1.9797258,-0.053215783,0.05618228,-0.12494309,-0.120380685,6.1202936,7.1698036,-0.0019919835,0.019258967,-0.032841682
0.6535412,2.9317408,16.12086,-0.0051610894,-0.08524743,0.026434988,0.07309979,5.3231554,9.407568,-0.00278426,-0.0068676323,-0.018022515
1.106026,13.24911,12.493798,-0.08957678,-0.013107231,0.11695932,0.33133137,7.304644,10.179126,-0.02448239,-0.008427532,0.015722945
0.45243698,9.18393,-0.77549416,0.31435022,0.032794893,-0.067696355,0.3616078,7.7744656,7.4404707,0.060225762,0.0018780734,-0.00513188
-2.215786,5.817827,17.399307,-0.13646793,-0.106889494,-0.056526273,-0.28274065,7.285306,9.93018,0.01105234,-0.025313819,-0.017980479
-0.9660665,8.982826,-0.69768596,-0.016854791,0.064036265,0.100844145,-0.4535721,7.7096863,7.2732134,0.0040755575,-0.0029762983,0.011725677
-0.087432265,6.154198,7.7463,-0.054204796,0.0010299282,0.020966291,-0.36203712,7.320814,7.391485,-0.01049453,-0.0019747417,0.01403583
-0.92895794,7.123808,15.563034,-0.06165154,0.087074585,-0.06851084,-0.5037673,7.2715626,9.434372,-0.023283783,0.02028759,-0.0066008363
0.6307973,9.713026,-6.228054,0.0021692892,-0.09618483,-0.00788979,-0.22012615,7.8819284,5.5187654,-0.016920514,-0.008830514,-0.006923075
-2.0074995,11.82941,7.6565213,0.088097595,0.04402316,0.02608592,-0.6669695,8.868799,6.0532045,0.009334013,0.0043829046,0.0013291743
1.3346623,13.01808,-2.9696858,-0.13035925,-0.08123318,0.013810449,-0.16656154,9.906119,3.797482,-0.025589302,-0.017021116,0.0044494933
-2.3749936,-7.261134,9.635245,0.14935859,0.015457981,-0.027030218,-0.71866953,5.614306,5.2569227,0.01814767,-0.008901342,-0.003420435
-0.68356276,23.944746,26.402313,-0.18492986,0.02959513,-0.07031435,-0.70989287,10.196917,10.54327,-0.03262171,7.23E-04,-0.020143913
1.4124706,-2.3963253,17.647095,0.21277218,-0.1076458,0.07914389,-0.17930198,7.048606,12.319226,0.02872676,-0.026369367,0.004678037
-0.8738938,12.620659,5.2971373,-0.026628613,-0.0365528,0.09869158,-0.35294992,8.441619,10.563704,0.014887917,-0.028915226,0.028181423
-0.64765143,12.301046,4.7716327,0.026487533,0.024242792,0.03039106,-0.4266253,9.406476,9.115685,0.017787822,-0.015625723,0.02873383
-1.1647768,-17.000328,21.6213,0.17996001,0.037274573,5.46E-04,-0.6111632,2.8047752,12.242089,0.05833087,-0.0024006488,0.021686863
-0.28614253,-0.9287431,7.126229,0.0071143736,0.03820541,0.03481256,-0.52990806,1.8713956,10.963124,0.045526747,0.007750866,0.024968287
0.9587889,11.616334,1.4426384,-0.06473493,0.008651198,0.024107885,-0.15773383,4.30763,8.583003,0.017961327,0.007975949,0.024753187
1.4280322,6.5540123,2.1081977,0.0022274689,0.008825723,-0.04366901,0.23870766,4.8692255,6.9643016,0.014027862,0.008188393,0.0076476373
0.3279439,2.7617602,8.251455,0.004845455,0.0064404393,0.010028907,0.26101673,4.342359,7.28609,0.01173226,0.0077514043,0.0082429545
1.1407404,3.7553108,9.501175,0.06569922,0.04716477,0.037895974,0.48094764,4.195597,7.839861,0.025224,0.017604746,0.01565621
0.94921243,6.9813595,12.047298,-0.04227838,-0.013165396,-0.01847811,0.5980138,4.892038,8.89172,0.008348405,0.0099122105,0.0071226303
4.607395,14.234282,11.46673,0.10310741,-0.012292735,0.19770981,1.6003592,7.2275987,9.535473,0.032038156,0.004360974,0.054769427
-2.4360433,0.27668554,3.286094,0.033468835,0.16096014,-0.13413519,0.5912585,5.4898705,7.9731283,0.032395825,0.043510765,0.0075432733
1.2412925,6.862851,9.5777855,-0.0029503298,0.024242781,0.058607202,0.31032312,1.7157128,2.3944464,-7.38E-04,0.0060606953,0.0146518005
-1.4592509,5.270776,5.421631,0.027243838,-0.046501163,0.05348758,-0.13207039,2.6044786,3.1512425,0.006257773,-0.007079769,0.024360746
0.23816538,7.0890937,5.201373,0.021426082,0.08812178,0.18927406,-0.03951145,3.7256324,3.6637752,0.01004985,0.016720619,0.06558907
-1.8674448,10.256487,9.250991,-0.030642863,0.05286616,0.090081275,-0.49649477,5.358346,5.0605793,-1.23E-04,0.025757004,0.07171212
1.9726896,9.106123,-1.4219009,-0.001961309,-0.06703786,-0.055013645,0.12080133,6.29529,3.4399593,-5.83E-04,0.0025582872,0.04003068
-0.24783689,7.359627,6.8616805,0.025731217,0.13600196,-0.23047724,0.028641775,6.561374,4.2953897,0.0059956866,0.035919204,-0.027596302
-0.9924017,2.864706,10.068577,-0.031922773,-0.122481115,-0.27166703,-0.22661911,5.637207,5.7386866,-0.0034839283,-0.0036808774,-0.08861399
-0.79369134,7.834855,1.8424528,0.020262534,0.053622477,0.1092217,-0.36838716,6.186619,4.764628,0.0024526874,0.010644961,-0.039155066
-0.074264735,9.48439,16.35548,0.041264635,0.04838648,0.05377846,-0.29485655,7.0110617,7.662341,0.012155674,0.020080341,-0.015921686
-0.7901002,7.724727,-3.7334032,-0.018192858,0.035121992,-0.09172369,-0.41866747,7.189478,4.813405,0.0045685414,0.023840753,-0.034872185
0.41652554,0.31379414,4.018688,-0.078581214,-0.062150937,-0.069325335,-0.2098692,5.470557,4.614726,-0.016218897,0.0023428313,-0.043485474
-1.5538177,2.1716146,7.0113115,-0.026395902,-0.060638323,-0.077121116,-0.54585636,4.6458216,5.2138724,-0.018763147,-0.013402458,-0.051894385
-1.7644985,4.673448,7.338106,0.047198743,-0.027709804,0.014392228,-0.8505169,4.652728,5.7449307,-0.0022726748,-0.016979296,-0.035322733
-1.1336533,0.7746582,1.9094875,0.04010108,-0.009791108,0.050404154,-0.921301,3.6832106,4.78607,0.008320764,-0.015182249,-0.0138910115
-0.21431953,5.049321,11.567282,0.021193357,-0.041846953,-0.039654754,-0.74455565,4.0247383,6.481373,0.011538912,-0.021848425,-0.020331947
0.94801545,11.118362,8.415451,0.0017620404,0.12116665,0.29364464,-0.32141286,5.7981443,6.9648924,0.009094694,0.013905343,0.058162197
0.888163,10.2433195,1.9837046,0.0120012965,0.15985474,0.11079252,-0.019018888,6.909438,5.7195954,0.009821344,0.05039269,0.071319774
1.1275728,6.966995,8.007257,-0.20738642,5.65E-04,-0.028426483,0.26762903,6.923827,6.291511,-0.044480596,0.037935644,0.04638321
0.31238225,13.393953,3.0095756,0.12864737,-0.038123593,-0.021328812,0.27881733,8.541359,5.4710274,-0.0011986047,0.018920835,0.029455204
-2.627571,2.7677455,19.81495,-0.13414082,-0.017877787,-0.0398293,-0.4477798,7.0979557,9.057009,-0.03443416,0.0097211795,0.012134079
-0.39267984,13.816511,9.1001625,0.25122756,-0.11753602,0.1562292,-0.4340048,8.777595,9.067797,0.036981273,-0.022093121,0.04815786
-0.67278945,0.6190417,3.4476957,0.11619739,0.08585286,-0.035989568,-0.49370098,6.737956,7.662771,0.056785304,0.0048933737,0.027121004
0.16993335,15.414573,0.732788,-0.16055343,0.08841267,-0.115052916,-0.3277924,8.90711,5.9302754,0.0024506226,0.025773197,-0.008422475
0.86182785,9.945253,-4.455224,-0.008302674,-0.056449514,-0.0626349,-0.030387342,9.166646,3.3339005,-2.38E-04,0.0052175187,-0.02197558
-0.15566407,7.47215,12.663779,-0.0773013,-0.04725747,0.0591308,-0.061706524,8.743022,5.6663704,-0.0195036,-0.007901229,-0.0016989857
0.21901236,4.0366178,0.5544276,-0.14664897,-0.03509836,0.048833363,0.008473199,7.566421,4.388385,-0.051289946,-0.0147005115,0.010934101
-0.61173993,1.0918763,1.6018457,-0.1006887,0.0891108,0.0591308,-0.14658009,5.947785,3.69175,-0.06363963,0.011252316,0.022983275
-0.6560307,2.2350583,7.654127,-0.038147777,0.038845364,-0.042796347,-0.27394274,5.0196033,4.6823444,-0.057266667,0.018150577,0.0065383688
-1.4915711,13.421484,4.3706207,-0.052983083,0.04117247,-0.090734676,-0.5783498,7.1200733,4.6044135,-0.056195773,0.02390605,-0.017779892
0.21901226,5.576023,14.9369755,0.31109226,0.060894676,-0.013707545,-0.3790093,6.734061,7.187554,0.035626233,0.033153206,-0.016761806
0.7540935,9.254557,10.566548,-0.26067707,-0.117768705,-0.0341279,-0.09573358,7.364185,8.032303,-0.038449593,-0.0045772716,-0.02110333
-0.6201192,10.416891,1.9573694,-0.053564835,-0.011303721,-0.0901529,-0.22682999,8.127361,6.5135694,-0.042228404,-0.006258884,-0.03836572
2.540091,9.118093,24.775524,0.11747731,0.09143792,-0.024819467,0.46490026,8.375044,11.079058,-0.002301976,0.018165316,-0.034979157
3.1230543,16.226171,7.530831,-0.15066323,-0.14889371,-0.0038755345,1.1294388,10.337826,10.192001,-0.03939229,-0.023599442,-0.02720325
0.54341274,3.5829358,8.8164625,0.08001087,-0.011245543,0.22883484,0.98293227,8.649103,9.848117,-0.0095415,-0.020510968,0.036806274
-0.5530845,6.1721535,18.13669,0.06319758,-0.030385975,0.1931138,0.5989281,8.029865,11.92026,0.00864327,-0.02297972,0.07588316
1.103632,7.7869735,8.0395775,0.015375609,-0.030385975,0.05214948,0.275908,1.9467434,2.0098944,0.0038439021,-0.0075964937,0.01303737
-1.5933204,7.675648,5.639493,-0.02255618,-0.019855816,-0.008529744,-0.1913991,3.3789697,2.917294,-0.0027561183,-0.0106613245,0.007645591
-1.1563973,8.36036,6.959839,-0.027675807,-0.03504019,0.0015349761,-0.43264866,4.624317,3.9279304,-0.008986041,-0.016756041,0.006117937
0.77324617,8.1712265,3.7146378,-0.016272997,0.026162654,0.2366888,-0.13117495,5.5110445,3.874607,-0.010807781,-0.0060263667,0.06376065
-1.10253,7.7977476,4.2173986,-0.022032587,-0.029804185,0.06419225,-0.37401372,6.0827203,3.960305,-0.013613982,-0.011970822,0.06386855
-1.799213,8.272976,7.6984186,-0.014993086,0.11994493,0.09048852,-0.73031354,6.6302843,4.8948336,-0.013958758,0.021008115,0.070523545
0.53623044,10.304369,3.3423555,0.0382394,2.15E-04,-0.041400082,-0.41367754,7.548805,4.506714,-9.09E-04,0.015809946,0.042542636
-1.2820876,8.195168,5.3378367,-0.044838198,0.0026588999,0.036557883,-0.63078004,7.710396,4.7144947,-0.011891464,0.012522184,0.041046448
0.8067635,9.47601,1.6904273,0.024044074,0.04041616,-0.03342975,-0.27139413,8.151799,3.958478,-0.0029075798,0.019495677,0.022427399
-0.074264795,6.126666,9.889019,-0.01126972,-0.0050205495,-0.021910597,-0.22211179,7.645516,5.4411135,-0.004998115,0.013366621,0.0113429
-1.5586058,1.1146202,9.309647,-0.10976438,-0.0128745185,-0.096668795,-0.5562353,6.012792,6.408247,-0.03118968,0.0068063363,-0.015660023
0.6487531,12.526093,8.932577,-0.01702931,-0.031200465,0.08955769,-0.2549882,7.641117,7.0393295,-0.027649587,-0.002695364,0.010644406
-0.14129955,8.112571,5.269605,0.03323614,-0.031898588,0.022769798,-0.22656603,7.7589808,6.5968986,-0.012428155,-0.00999617,0.013675754
-1.6819019,-1.5033269,9.4880085,0.021484256,-0.007405827,0.022769801,-0.5904,5.4434037,7.319676,-0.003950052,-0.009348584,0.015949266
-1.8087893,6.352908,-8.654472,-0.06182607,0.1070295,0.10823269,-0.8949973,5.6707797,3.326139,-0.018419057,0.019745937,0.03902012
0.6296003,14.474889,8.964896,-0.15729547,0.030293263,0.0463899,-0.5138479,7.871807,4.7358284,-0.05313816,0.022382768,0.040862568
0.52186584,7.269848,8.028804,-0.15688825,0.1047024,-0.06478748,-0.25491947,7.7213173,5.5590725,-0.07907568,0.042962678,0.0144500565
-1.26892,4.9116607,7.011312,-0.44085312,-0.06651425,-0.2005158,-0.5084196,7.0189033,5.9221325,-0.16952004,0.015593445,-0.03929141
0.526654,4.307151,4.680657,0.39917314,-0.12812431,0.13313271,-0.2496512,6.3409653,5.6117635,-0.027346745,-0.020335993,0.003814619
0.6846646,14.513193,3.8463135,-0.0010305014,0.026860785,-0.0074243667,-0.016072243,8.384022,5.170401,-0.020767685,-0.008536799,0.0010048726
-1.0534511,-12.347398,8.773369,0.06028869,-0.09670844,-0.030753583,-0.27541694,3.201167,6.071143,-5.04E-04,-0.030579709,-0.0069347406
-0.12573786,14.726269,3.7194262,0.23243624,-0.05493692,0.2032367,-0.23799717,6.0824423,5.483214,0.057731368,-0.036669012,0.045608122
0.12683955,4.0749235,4.6555185,-0.18615156,0.15479329,-0.24054198,-0.146788,5.5805626,5.27629,-0.0032393634,0.011196565,-0.025929403
-1.0235249,12.949847,1.8089352,-0.052052226,-0.074077345,0.09136117,-0.36597222,7.422884,4.4094515,-0.015442579,-0.010121912,0.0033932403
-2.4049199,-5.6810293,26.244305,0.05703076,-0.11875775,0.13703059,-0.8757091,4.146906,9.868165,0.0026757559,-0.037280872,0.036802575
-3.4092443,-1.9175059,13.386797,-0.08265362,0.026569892,0.10346212,-1.5090929,2.630803,10.747823,-0.01865659,-0.021318182,0.05346746
1.1443315,15.04229,4.754874,0.07302959,0.0071967514,0.08280908,-0.84573686,5.733675,9.249586,0.0042649563,-0.014189449,0.060802866
-2.2971854,17.574049,15.444525,0.015433785,-0.022182934,0.039001346,-1.208599,8.6937685,10.798321,0.0070571634,-0.01618782,0.055352487
-0.41901493,6.735964,6.0728254,-0.0028921524,0.028664283,0.014915823,-0.10475373,1.683991,1.5182064,-7.23E-04,0.007166071,0.0037289558
1.3657857,8.002441,7.761862,0.008859722,0.023951896,0.073791556,0.26288113,3.2636037,3.0791202,0.0016726519,0.011362527,0.021244606
0.5721419,7.3332915,5.6981487,0.014386591,0.047746535,0.20963624,0.3401963,4.281026,3.7338772,0.0048511364,0.020458529,0.068342514
-0.68476,8.299311,3.13766,-0.01022253,0.2291443,0.73561984,0.083957255,5.285597,3.584823,0.0010827198,0.07262997,0.23516184
-2.4312549,5.3485837,5.139127,-0.009000801,0.27655897,0.4910412,-0.54484576,5.3013434,3.973399,-0.0014381604,0.123612225,0.2991317
-2.0146818,8.6811695,5.2312994,0.04341721,-0.027069855,-0.3315899,-0.91230476,6.1463,4.287874,0.009775682,0.0859417,0.1414513
-0.5626609,8.505203,6.53728,0.02247328,-0.08047688,-0.41042063,-0.8248938,6.736026,4.8502254,0.012950081,0.044337057,0.0034833252
-0.9289579,7.493696,5.2169347,-0.02051996,-0.109682016,-0.005795397,-0.8509098,6.9254436,4.9419026,0.004582571,0.0058322884,0.0011636447
-1.3132108,5.034957,4.175502,0.0052527054,0.04157971,0.029460218,-0.9664851,6.4528217,4.7503023,0.0047501046,0.014769143,0.008237788
-1.0845743,7.5200315,10.582109,-0.01702931,-0.07349556,0.015439427,-0.9960074,6.719624,6.208254,-6.95E-04,-0.0072970325,0.010038198
2.054089,7.6541014,5.0900474,0.038413946,0.013479927,0.027714893,-0.23348325,6.9532433,5.9287024,0.009082424,-0.0021027927,0.014457372
-1.7884394,7.146552,10.127232,0.09391536,0.037158206,-0.005504509,-0.6222223,7.0015707,6.9783344,0.03029066,0.007712457,0.009466901
-1.6172615,4.655492,13.872799,-0.029770195,0.06374538,-0.015860118,-0.8709821,6.415051,8.70195,0.015275446,0.021720687,0.0031351466
-1.7860453,4.313136,9.763329,-0.06234964,-0.08524745,-0.17026345,-1.0997479,5.889572,8.967295,-0.0041308263,-0.0050213467,-0.0402145
-0.76855344,16.485931,9.557436,-0.03558797,0.004695109,0.09322287,-1.0169493,8.538662,9.11483,-0.0119951125,-0.0025922328,-0.00685516
-0.65243965,5.5903883,11.985052,0.02468403,-0.058020327,-0.024063163,-0.9258219,7.801594,9.832386,-0.0028253272,-0.016449256,-0.011157161
2.3174398,13.294598,-4.755684,0.08821395,-0.009442042,0.021722604,-0.11500645,9.174845,6.1853685,0.019934492,-0.014697452,-0.00293722
4.26863,17.595596,-10.902533,0.023113208,-0.09333412,-0.0035846573,0.9809027,11.280033,1.913393,0.020729171,-0.03435662,-0.0030990792
1.7488414,-0.6438453,-10.423712,-0.12785761,0.13187133,0.031787332,1.1728873,8.299064,-1.1708832,-0.016417524,0.0072003677,0.005622524
0.9540007,13.726731,-0.6917008,0.03387607,-0.07425187,0.022304378,1.1181657,9.655981,-1.0510876,-0.0038441252,-0.013162691,0.009792987
-0.3807094,7.819294,15.719847,0.009150583,0.015981566,0.05878174,0.74344695,9.19681,3.1416461,-5.95E-04,-0.005876627,0.022040175
2.9638467,-6.2556133,16.17233,0.0880976,0.013654464,-0.061122276,1.2985469,5.333704,6.3993173,0.021577815,-9.94E-04,0.001249563
0.40814614,11.368546,4.733327,0.024858523,-0.023637362,-0.012834884,1.0759467,6.8424144,5.9828196,0.022397991,-0.006654731,-0.0022715488
-0.8032678,0.06121677,8.735063,-0.04088213,-0.006882229,-0.08136808,0.60614306,5.1471148,6.6708803,0.006577961,-0.0067116055,-0.022045683
-0.3795123,10.850224,7.0567994,0.07052793,-0.11398717,-0.08101902,0.35972923,6.572892,6.76736,0.022565454,-0.033530496,-0.03678902
-1.0642246,2.0698652,2.6265202,0.07448404,-0.049119156,0.17496239,0.0037407875,5.4471354,5.73215,0.035545103,-0.03742766,0.016148832
0.9563948,-6.1801987,26.574688,-0.08381718,0.11918862,0.17682406,0.24190429,2.5403018,10.942784,0.0057045333,0.0017264113,0.05631764
1.0892674,19.44025,3.9672153,-0.08218822,0.15886572,-0.019758012,0.45374507,6.765289,9.198893,-0.016268656,0.041011237,0.037298724
-2.6203887,11.965874,8.822448,0.40091848,-0.069714025,-0.15083215,-0.3147884,8.065435,9.104781,0.08802813,0.013329921,-0.009733994
2.31744,6.2475677,-4.361854,-0.1268686,0.09085612,-0.0010830099,0.3432687,7.6109686,5.7381225,0.03430395,0.03271147,-0.0075712474
-1.0905596,11.045342,-13.155378,-0.041987512,0.12145753,-0.1968506,-0.015188396,8.469563,1.0147471,0.015231084,0.054897986,-0.054891083
-2.2684562,-1.2890549,1.1481642,-0.017203879,0.01417807,-0.17328867,-0.57850534,6.029908,1.0481014,0.0071223434,0.04471801,-0.08449048
-1.04986,0.43828726,11.171059,-0.024941478,-0.08780726,-0.10376646,-0.696344,4.632003,3.5788407,-8.94E-04,0.011586692,-0.08930948
-1.6914785,5.579614,-6.115532,0.042660885,-0.01374718,0.053022157,-0.9451276,4.8689055,1.1552477,0.009995013,0.005253224,-0.05372657
-0.97324884,13.164119,-12.110354,-0.19656537,-0.006940405,0.11090885,-0.9521579,6.942709,-2.1611528,-0.041645084,0.0022048168,-0.012567714
0.5398216,7.8779488,8.697954,0.24290818,-0.1344075,0.06704295,-0.579163,7.176519,0.5536239,0.029493231,-0.031948265,0.0073349513
0.8247193,9.266526,16.621223,-0.18853687,0.014468948,0.068904646,-0.22819245,7.699021,4.570524,-0.025014292,-0.020343961,0.022727374
-1.1276683,6.5923185,1.2858248,0.1672191,0.03547106,-0.029531859,-0.4530614,7.422345,3.7493494,0.023044057,-0.0063902065,0.009662566
1.1144054,-4.664734,22.86623,-0.21320418,-0.0032752173,-0.035931382,-0.061194718,4.4005756,8.528569,-0.036018,-0.0056114593,-0.001735921
1.0557499,9.65078,9.142059,0.21707731,-0.10648225,0.08234365,0.21804142,5.7131267,8.681942,0.027255833,-0.030829158,0.019283973
4.128576,11.168638,8.518396,0.09106465,0.101095386,-0.030869938,1.195675,7.0770044,8.641056,0.043208037,0.0021519773,0.006745495
-2.2708502,13.826088,5.694557,-0.01220059,0.087481834,-0.06752182,0.32904375,8.764276,7.9044313,0.02935588,0.023484442,-0.011821333
5.2514076,2.6085377,17.213764,0.19613338,0.13972531,-0.11342394,1.5596347,7.225341,10.231765,0.07105026,0.05254466,-0.037221987
0.063566945,6.6653376,7.2295175,-0.002959752,-0.0032919857,0.009949628,0.015891736,1.6663344,1.8073794,-7.40E-04,-8.23E-04,0.002487407
0.17050336,6.7141323,7.283669,-0.0031342856,-0.011553202,-0.0022094883,0.054544643,2.928284,3.1764517,-0.0013385249,-0.0035055478,0.0013131832
0.05433256,6.581432,7.3233433,-0.0022616214,0.0045038103,-0.02495693,0.054491624,3.8415709,4.213175,-0.001569299,-0.0015032082,-0.005254345
0.21827137,7.1162276,6.4822164,-9.82E-04,-0.019349,0.008029766,0.09543656,4.660235,4.780435,-0.0014224029,-0.005964656,-0.0019333172
-0.027066773,7.571105,6.573762,0.0075122165,-0.00567727,0.038049407,0.06481072,5.3879523,5.228767,8.11E-04,-0.0058928095,0.0080623645
0.3413964,7.602686,6.3219256,0.023511048,0.033825316,0.046194263,0.13395715,5.9416356,5.5020566,0.0064862007,0.004036722,0.01759534
0.17494953,7.5087457,6.56772,-0.0106391935,-0.015800165,-0.20117687,0.14420524,6.333413,5.7684727,0.0022048522,-9.23E-04,-0.03709771
-0.44854224,7.8121104,6.257513,-0.023147373,-0.07217424,-0.24003948,-0.00398162,6.7030873,5.890733,-0.004133204,-0.018735435,-0.08783315
-0.7696935,7.3640723,6.5704556,0.024441894,-0.07060345,0.052186564,-0.1954096,6.868334,6.060663,0.0030105705,-0.03170244,-0.052828223
0.0040564993,7.7882843,6.0010023,0.00576689,0.010437928,0.34767056,-0.14554307,7.0983214,6.0457478,0.0036996505,-0.02116735,0.047296472
0.24152829,7.95952,6.452233,-0.0060431696,0.06518303,0.063996606,-0.048775226,7.313621,6.147369,0.0012639454,4.20E-04,0.051471505
0.11190492,7.651022,6.2583103,-0.028267004,0.044820886,-0.053173058,-0.00860519,7.397971,6.175104,-0.006118792,0.011520406,0.025310364
-0.0588741,7.8831367,6.389074,0.0028580064,-0.0077716606,-0.076036856,-0.021172417,7.5192623,6.2285967,-0.0038745925,0.0066973893,-2.64E-05
-0.12704891,8.288195,6.2682285,0.085470185,0.0011295117,0.04241272,-0.047641538,7.7114954,6.2385044,0.018461602,0.0053054197,0.010583349
0.1469044,7.1582947,6.0912943,0.018100526,0.06681201,0.0063426197,9.95E-04,7.5731955,6.201702,0.018371332,0.020682067,0.009523166
-0.28049922,7.3909783,6.295362,-0.022274718,0.040632095,-0.061666995,-0.0693786,7.5276413,6.225117,0.00820982,0.025669575,-0.0082743745
0.10118849,7.395082,5.4030476,-0.020063963,-0.016963717,-0.09808616,-0.026736826,7.4945016,6.0196,0.001141374,0.015011252,-0.030727321
-0.36292458,7.205719,5.4019074,-0.02064573,-0.057338964,-0.040373985,-0.11078376,7.422306,5.8651767,-0.004305402,-0.0030763028,-0.033138987
-0.08623524,7.3077545,7.0930533,0.0065813707,-0.021792455,0.061669506,-0.10464663,7.393668,6.172146,-0.0015837087,-0.007755341,-0.009436864
-0.078368895,7.2259007,6.462379,-0.012326332,0.022480687,0.04811413,-0.09807719,7.3517265,6.2447042,-0.0042693643,-1.96E-04,0.004950884
-0.086349234,7.2931604,6.993641,0.009141187,7.80E-04,-0.04933334,-0.0951452,7.337085,6.431938,-9.17E-04,4.79E-05,-0.008620173
0.050000384,7.1612587,6.5359135,0.04253513,0.0071799834,0.044099867,-0.058858804,7.293128,6.457932,0.009946238,0.0018308917,0.0045598373
-0.05796203,7.113491,6.289776,0.085644715,0.10747815,0.0429945,-0.05863461,7.2482185,6.415893,0.028870858,0.028242707,0.014168503
-0.35540032,7.799914,4.291958,0.041313384,0.058841683,-0.17604415,-0.13282603,7.3861423,5.884909,0.03198149,0.03589245,-0.03338466
-0.24572775,8.3094,5.8574705,-0.041880567,-0.08799856,0.043518096,-0.16105145,7.6169567,5.8780494,0.013515975,0.0049196966,-0.01415897
-0.31914678,7.698449,6.2999225,0.007163153,-0.058153454,0.054571837,-0.20057529,7.63733,5.9835176,0.0119277695,-0.010848591,0.0030237325
0.20174065,8.502637,5.052255,-0.0773689,0.0416793,0.0056444835,-0.099996306,7.853657,5.750702,-0.010396398,0.0022833813,0.0036789202
-0.10846611,7.8346834,5.516026,0.019205898,0.02393513,-0.06661207,-0.10211375,7.848913,5.692033,-0.0029958235,0.0076963184,-0.013893828
-0.14528958,8.747064,3.6126034,-0.011802763,-0.014811147,-0.0054674307,-0.11290771,8.073451,5.1721754,-0.0051975586,0.0020694518,-0.011787228
-0.24424583,7.95496,5.341485,0.04614211,-0.006724469,0.0036082733,-0.14574224,8.043828,5.214503,0.0076373583,-1.29E-04,-0.007938353
-0.41228867,8.087776,5.676089,0.014842586,-0.041340128,0.033278838,-0.21237884,8.054815,5.3298993,0.009438666,-0.010431803,0.002365945
0.06470702,8.366744,5.841624,-0.0013889652,-0.0093424525,0.020770656,-0.14310738,8.132797,5.4578304,0.006731758,-0.0101594655,0.0069671227
-0.34228975,7.22305,5.717016,0.034797493,0.0010131565,0.012742154,-0.19290298,7.90536,5.522627,0.013748191,-0.00736631,0.00841088
-0.17116871,7.2546287,5.640862,-0.10575956,-0.021676091,0.026181178,-0.18746942,7.742677,5.5521855,-0.016128747,-0.0109437555,0.012853455
-0.153612,7.861932,5.756234,-0.087317266,0.02265522,-0.024200618,-0.17900507,7.772491,5.6031976,-0.033925876,-0.002544012,0.0035899365
-0.15600607,7.016815,3.8102875,0.05457786,0.023760596,-0.033567213,-0.17325532,7.583572,5.15497,-0.011799943,0.00403214,-0.0056993505
0.04156397,7.537931,3.9331846,0.025081828,3.15E-04,-0.004362061,-0.1195505,7.5721617,4.8495235,-0.0025795,0.0031028618,-0.005365028
-0.021936677,8.7475195,3.7817862,0.08965896,0.07501506,-0.030891042,-0.09514704,7.866001,4.582589,0.020480115,0.021080911,-0.011746531
-0.17276485,3.41951,6.532949,0.0261872,0.08955945,-0.0826691,-0.1145515,6.7543783,5.070179,0.021906886,0.038200546,-0.029477173
-0.34445587,6.1099067,8.673841,-0.0015053358,-0.016847363,-0.09069761,-0.17202759,6.5932603,5.9710946,0.016053831,0.02443857,-0.04478228
-0.13970345,4.5873747,7.636172,-0.027859762,-0.079970054,0.108618826,-0.16394655,6.091789,6.387364,0.0050754324,-0.0016635861,-0.0064320043
-0.009738066,3.754228,8.96387,-0.0032506594,0.03475616,-0.033567213,-0.12539443,5.5073986,7.0314903,0.0029939094,0.007441351,-0.013215806
-0.5316516,3.6062503,7.259843,-0.041764226,0.04528631,-0.04491184,-0.22695872,5.0321116,7.088578,-0.008195624,0.01690259,-0.021139815
0.36784548,4.0622687,9.394352,-0.024310943,-0.018127268,-0.006049208,-0.07825768,4.789651,7.665022,-0.0122244535,0.008145126,-0.017367164
-0.0060899146,4.7209883,6.601579,-0.051014457,-0.014229368,0.024843095,-0.060215738,4.7724853,7.3991613,-0.021921955,0.002551502,-0.006814599
-0.0705026,3.8794048,7.236357,0.04823652,-0.020221666,0.03688585,-0.06278745,4.5492153,7.3584604,-0.0043823365,-0.0031417897,0.0041105133
0.051482406,3.7565084,9.790062,0.0633627,0.019804517,-0.049158804,-0.034219988,4.3510385,7.966361,0.012553923,0.0025947867,-0.009206817
-0.07608881,4.1881304,6.5352287,-0.04385861,-0.013996659,-0.004594761,-0.044687193,4.3103113,7.6085777,-0.0015492104,-0.0015530745,-0.008053803
-0.029346874,4.7721763,8.270038,-0.009010221,-0.032613494,-0.021117207,-0.040852115,4.4257774,7.773943,-0.003414463,-0.009318179,-0.011319654
-0.035731126,3.9954624,9.924816,-0.115417056,-0.012484043,-0.021931697,-0.039571866,4.3181987,8.311661,-0.031415112,-0.010109645,-0.013972664
-0.051349822,4.4427023,8.982908,-0.018202275,-0.0203962,-0.07114994,-0.042516354,4.3493247,8.479473,-0.028111903,-0.012681284,-0.028266983
0.047606308,5.1465673,8.259321,-0.048745524,-0.08159903,-0.087497845,-0.019985689,4.5486355,8.424435,-0.033270307,-0.02991072,-0.043074697
-0.07871091,4.5075707,8.636333,0.0038470244,-0.030751808,-0.023327954,-0.034666993,4.538369,8.477409,-0.023990974,-0.030120993,-0.03813801
-0.11735848,4.9542413,8.405247,0.015017125,0.033418078,0.12589757,-0.055339865,4.6423373,8.459369,-0.014238949,-0.014236225,0.0028708875
-0.28460342,4.8461647,9.016313,-0.011337327,-0.00288474,-0.13345815,-0.11265575,4.693294,8.598604,-0.013513544,-0.011398354,-0.031211372
-0.026154734,4.915479,8.404222,-0.00447237,0.012415966,-0.056721896,-0.09103049,4.7488403,8.550009,-0.011253251,-0.0054447735,-0.037589002
-0.8507508,6.330164,7.0925975,0.03991714,0.0042129266,0.007331636,-0.28096056,5.144171,8.185656,0.0015393477,-0.0030303486,-0.026358843
-0.8000186,6.7551737,6.9971747,0.00588324,-0.013822129,0.025075803,-0.41072506,5.5469217,7.8885355,0.0026253208,-0.0057282937,-0.013500182
-0.25291008,6.607082,7.1706905,2.40E-04,-0.034416996,0.05090666,-0.3712713,5.8119617,7.709074,0.0020289938,-0.01290047,0.0026015285
-0.11530642,6.5960236,7.2905097,-0.0016216692,0.0031657289,1.76E-04,-0.028826606,1.6490059,1.8226274,-4.05E-04,7.91E-04,4.39E-05
-0.03573115,6.664426,7.2101374,-0.0016216682,-0.0033501617,-0.0050601917,-0.030552741,2.9028609,3.169505,-7.09E-04,-2.44E-04,-0.0012320868
-0.024444677,6.5997853,7.219485,0.002101697,-0.013705773,-0.028389405,-0.029025726,3.827092,4.182,-6.69E-06,-0.003609418,-0.008021416
-0.2401416,7.121585,6.884652,-0.0059849867,-0.0031174524,-0.02635319,-0.08180469,4.6507154,4.857663,-0.001501261,-0.0034864265,-0.01260436
-0.056822054,7.131275,6.911786,0.0073958607,-0.009691527,-0.04235203,-0.075559035,5.2708554,5.371194,7.23E-04,-0.0050377017,-0.020041276
-0.61054283,7.2334237,6.3219256,0.0055923564,-0.053964667,-0.14922427,-0.20930499,5.7614975,5.6088767,0.0019403538,-0.017269444,-0.052337024
-0.55707467,7.5286965,6.527134,0.016122498,0.01712835,0.10600084,-0.29624742,6.203297,5.838441,0.0054858895,-0.008669995,-0.012752559
-0.22269885,7.873105,6.235966,0.013969929,0.021898914,0.14608517,-0.27786028,6.620749,5.9378223,0.0076068994,-0.0010277675,0.026956875
0.1469044,7.6428137,5.8506293,0.007337679,-0.011320492,-0.05933989,-0.17166911,6.876265,5.916024,0.0075395945,-0.0036009487,0.005382683
0.27048546,7.4262047,6.247366,-0.018609522,0.09974052,0.147656,-0.061130464,7.01375,5.9988594,0.0010023154,0.022234417,0.04095101
0.2565769,7.854179,5.8485785,-0.013489895,0.05040594,-0.10215859,0.018296376,7.2238574,5.9612894,-0.002620737,0.029277299,0.0051736087
0.0039424724,7.686251,5.7682047,-0.036179155,-0.040176578,-0.16097616,0.014707901,7.3394556,5.913018,-0.011010341,0.011913829,-0.036363833
-0.22509293,7.7148657,6.1562767,-0.024252748,-0.06338944,-0.093955554,-0.04524231,7.433308,5.973833,-0.0143209435,-0.0069119893,-0.050761763
-0.1726508,7.713498,5.5574093,0.012573662,0.016139332,0.17139246,-0.077094436,7.5033555,5.869727,-0.007597292,-0.0011491589,0.0047767907
0.036775835,7.9098134,6.930026,-3.42E-04,0.050115045,-0.012216032,-0.04862687,7.60497,6.134802,-0.005783409,0.011666892,5.29E-04
-0.071756646,7.9654484,7.2084265,-0.016689673,0.037083264,-0.10204223,-0.054409314,7.6950893,6.403208,-0.008509975,0.018020986,-0.025114119
-0.30820233,7.039843,4.24248,0.009955666,-0.08380977,0.03653679,-0.11785756,7.5312777,5.8630257,-0.0038935645,-0.007436704,-0.009701392
0.12683956,7.360311,6.0605125,0.0841321,0.04330827,0.21525835,-0.05668328,7.488536,5.9123974,0.01811285,0.0052495394,0.04653854
0.11692121,6.8923216,6.311779,0.02240567,0.08990852,-0.013321411,-0.0132821575,7.3394823,6.012243,0.019186053,0.026414284,0.031573553
-0.4321255,7.1318445,6.559397,0.07621997,-0.018709045,-0.07184806,-0.117993,7.287573,6.1490316,0.03344453,0.015133452,0.0057181492
-0.16204834,7.409105,6.88032,-0.034899253,-0.024817694,0.106757134,-0.12900683,7.317956,6.331854,0.016358584,0.0051456653,0.030977895
0.13926607,8.517571,5.8944073,0.1018181,0.10637278,-0.0455518,-0.061938606,7.61786,6.222492,0.037723463,0.030452445,0.011845471
-0.009966078,7.8335447,5.789638,0.030725058,0.015033957,-0.10652193,-0.048945475,7.671781,6.114279,0.03597386,0.026597824,-0.017746378
-0.3127626,7.8524694,5.040513,-0.03821538,-0.02126886,-0.01529945,-0.114899755,7.7169533,5.8458376,0.01742655,0.014631153,-0.017134646
0.19558437,8.90063,4.86791,-0.025939927,0.028589334,0.061494984,-0.037278727,8.012873,5.6013556,0.006584931,0.018120699,0.002522761
-0.07027461,8.185705,4.587002,-0.009475649,0.06983726,-0.017801082,-0.045527697,8.056081,5.347767,0.0025697863,0.031049838,-0.0025581997
-0.25450617,8.305865,5.4545774,-0.08353572,0.03632696,-0.107394576,-0.097772315,8.118526,5.3744698,-0.01895659,0.03236912,-0.028767293
-0.4971082,7.131504,4.7224393,0.12287835,-0.002942914,0.0069825687,-0.19760628,7.871771,5.211462,0.016502146,0.023541111,-0.019829828
-0.37899935,8.20577,2.2198083,-0.13257943,-0.063563965,-0.020651784,-0.24295455,7.955271,4.4635487,-0.020768248,0.0017648414,-0.020035317
-0.38857564,7.1470084,5.578387,0.012282769,-0.047623318,0.02175968,-0.27935982,7.7532053,4.742258,-0.012505493,-0.010582198,-0.009586568
-0.042115405,8.975986,5.6799645,-0.111111894,-0.03744223,0.07260689,-0.22004871,8.058901,4.9766846,-0.037157092,-0.017297206,0.010961796
-0.17880704,7.9732003,5.594803,0.11432627,0.035105225,0.033686094,-0.20973828,8.037476,5.131214,7.14E-04,-0.004196599,0.01664287
-0.21278043,8.106243,4.449969,-0.023321923,0.016022982,-0.060794316,-0.21049882,8.054667,4.9609027,-0.0052951705,8.58E-04,-0.0027164258
-0.2093603,7.074843,5.826575,0.047189318,0.015033957,0.007971585,-0.2102142,7.8097115,5.1773205,0.007825952,0.0044022114,-4.44E-05
-0.11496444,7.403974,5.4037313,-0.043044105,-0.02406139,-0.020070013,-0.18640175,7.708277,5.233923,-0.0048915623,-0.0027136886,-0.0050508203
-0.08019298,7.284954,6.1400886,-0.07428549,-0.024061382,0.055560865,-0.15984955,7.6024466,5.4604645,-0.022240046,-0.008050612,0.010102101
0.1047227,7.9597483,6.233572,0.09216061,-0.017312786,-0.018382858,-0.09370649,7.691772,5.6537414,0.0063601173,-0.010366156,0.0029808609
-0.42072502,7.4919853,5.8152885,-0.09255325,0.046973456,-0.061841518,-0.17546111,7.641825,5.694128,-0.018368226,0.0039687473,-0.013224733
-0.085437216,6.778659,6.4038944,0.06801688,1.99E-04,-0.016870242,-0.15295514,7.4260335,5.8715696,0.0032280497,0.003026228,-0.01413611
0.09754038,6.897793,6.4921346,-0.03588829,-0.04075835,-0.01751019,-0.090331264,7.2939734,6.026711,-0.0065510347,-0.007919917,-0.014979631
-0.50862265,6.8892436,5.8474383,-0.114777096,0.0038638576,0.0012811674,-0.19490412,7.192791,5.9818926,-0.03360755,-0.004973973,-0.010914431
-0.28961965,6.23611,6.777603,0.035146568,0.0019439957,-0.054918386,-0.218583,6.953621,6.1808205,-0.01641902,-0.003244481,-0.02191542
0.1718714,7.346516,7.1310177,-0.042113267,-0.06769458,0.01949075,-0.1209694,7.0518446,6.41837,-0.022842582,-0.019357007,-0.0115638785
-0.22315484,4.852094,7.250949,-0.103432454,0.0013040439,-0.05660554,-0.14651576,6.501907,6.6265144,-0.04299005,-0.014191745,-0.022824295
-0.22452295,6.2646112,7.455475,0.06359541,-0.041747365,0.0018629441,-0.16601756,6.442583,6.8337545,-0.016343687,-0.02108065,-0.016652485
-0.22782916,6.169987,6.640797,-0.09569487,-0.010447826,-0.022746176,-0.18147045,6.374434,6.7855153,-0.036181483,-0.018422443,-0.018175907
0.21063305,6.6440196,5.489007,-0.12839064,-0.09282729,0.058935165,-0.08344458,6.4418306,6.461388,-0.059233773,-0.037023656,0.0011018608
-0.5861459,5.8519154,6.4287486,-0.038622618,-0.0014884733,-0.072080754,-0.2091199,6.2943516,6.453228,-0.054080985,-0.02813986,-0.017193792
-0.077228874,6.505389,6.994211,-0.06247543,-0.037674945,-0.02245529,-0.17614715,6.3471107,6.588474,-0.056179598,-0.030523632,-0.018509166
-0.50052834,5.964665,6.776234,-0.007323076,-0.00771348,-0.017219305,-0.25724244,6.251499,6.635414,-0.043965466,-0.024821093,-0.018186701
-0.27080885,6.8696346,6.1931,-0.052061647,-0.053092003,0.0044809366,-0.26063403,6.406033,6.5248356,-0.045989513,-0.03188882,-0.012519792
-0.30626443,6.4605856,3.4457011,0.036019217,-0.034184285,-0.060038,-0.27204162,6.419671,5.755052,-0.02548733,-0.032462686,-0.024399344
-0.20947434,4.950822,8.602931,-0.024543641,-0.00782984,-0.029785672,-0.2563998,6.052459,6.467022,-0.025251407,-0.026304476,-0.025745926
0.08933199,6.5914626,5.9575663,0.11799147,-0.012193153,-0.053696655,-0.16996686,6.1872096,6.339658,0.010559313,-0.022776645,-0.032733608
-0.19317162,6.570601,6.4673963,0.010188387,-0.062458593,-0.01989548,-0.17576805,6.283057,6.3715925,0.010466581,-0.032697134,-0.029524077
0.22910169,6.0411625,5.7800612,0.008908478,-0.031217232,-0.036708802,-0.074550614,6.222584,6.2237096,0.010077056,-0.03232716,-0.03132026
-0.6586528,5.256582,8.251683,0.07051852,-0.08956935,0.023097767,-0.22057615,5.9810834,6.730703,0.025187422,-0.046637706,-0.017715752
0.18327186,5.9766364,5.2446947,-0.051130805,-0.03616232,0.04735782,-0.119614154,5.979972,6.359201,0.006107865,-0.04401886,-0.0014473591
-0.2606624,5.021276,9.573683,0.21980223,0.051918563,-0.081331015,-0.15487622,5.740298,7.1628213,0.059531458,-0.020034505,-0.021418273
0.040994015,5.277331,8.043624,-0.24724749,-0.012484047,-0.122462586,-0.10590866,5.624556,7.383022,-0.017163277,-0.018146891,-0.04667935
-0.0378972,7.3057027,6.3750515,-0.027452521,-0.07810837,-0.044039167,-0.0889058,6.0448427,7.131029,-0.019735588,-0.033137262,-0.046019305
-0.40704444,6.410366,6.266747,-0.0020289118,0.010321574,-0.008434492,-0.10176111,1.6025915,1.5666867,-5.07E-04,0.0025803936,-0.002108623
-0.37831527,7.521229,7.4410524,-0.0031342856,0.008052647,-0.022688001,-0.17089966,3.0822508,3.0352783,-0.0011639923,0.003948457,-0.007253468
-0.93733734,5.59757,6.7587347,0.004079737,0.00747087,-0.03350903,-0.36250907,3.7110806,3.9661424,1.47E-04,0.0048290603,-0.013817359
-0.26698968,5.231273,2.9940143,0.019554976,-0.016847365,-0.010063465,-0.33862922,4.091129,3.7231104,0.004998949,-5.90E-04,-0.0128788855
-0.6416662,7.681633,6.7994337,3.56E-04,-0.010040589,0.0077970587,-0.41438845,4.9887547,4.4921913,0.0038383054,-0.0029526816,-0.0077098995
-0.6177252,7.601431,6.2882943,-0.005694101,-0.02126886,-0.05701278,-0.46522263,5.641924,4.941217,0.0014552036,-0.007531726,-0.02003562
-2.073337,6.336149,7.426688,0.015366186,-0.07921375,-0.27325886,-0.8672513,5.81548,5.562585,0.0049329493,-0.025452234,-0.083341435
-0.9517018,8.039551,4.9643574,-0.005577745,0.07734216,0.34074742,-0.8883639,6.371498,5.413028,0.0023052758,2.46E-04,0.022680774
0.007818662,7.6843123,6.5598536,0.026419926,0.044064574,0.10704806,-0.66431826,6.699702,5.699734,0.008333938,0.011200917,0.043772593
-0.29041767,7.294074,6.404464,0.03165591,-0.031275406,-0.07522237,-0.5708431,6.8482947,5.8759165,0.014164431,5.82E-04,0.014023852
-0.37204498,7.93478,6.12504,-0.0106973685,0.0149757825,-0.0027330876,-0.52114356,7.119916,5.938197,0.007948982,0.004180323,0.009834617
-0.40043214,7.355295,6.486092,0.0034979582,0.0047946996,0.07842465,-0.4909657,7.1787605,6.075171,0.0068362257,0.004333917,0.026982125
-0.2576983,7.58547,6.239842,0.04759658,-0.0073062405,0.01413841,-0.43264884,7.280438,6.1163387,0.017026315,0.0014238777,0.023771197
-0.34240377,7.5421486,6.165853,-0.013082655,0.012415966,-0.029436603,-0.4100876,7.3458657,6.1287174,0.009499072,0.0041718995,0.010469247
0.029707555,7.562214,6.4857497,0.01600615,0.0043874593,-0.06795017,-0.3001388,7.399953,6.2179756,0.011125841,0.0042257896,-0.009135608
-0.50246644,7.3428693,6.9158897,0.12823072,-0.06187682,4.67E-04,-0.3507207,7.385682,6.392454,0.040402062,-0.012299863,-0.006735035
-0.3164107,7.624574,5.4890065,-0.060497396,-0.014229374,0.0827298,-0.3421432,7.445405,6.166592,0.015177198,-0.01278224,0.015631173
-0.49733612,7.089321,6.330135,0.05434518,-0.033893403,-0.02990202,-0.38094145,7.3563843,6.2074776,0.024969194,-0.01806003,0.004247874
-0.11587645,7.735159,6.332529,-0.047291093,-0.055651817,-0.008550847,-0.3146752,7.451078,6.2387404,0.0069041215,-0.027457977,0.0010481938
-0.05807607,7.954845,6.3672986,-0.115591556,0.0484279,0.06894171,-0.25052541,7.5770197,6.2708797,-0.023719799,-0.008486507,0.018021574
0.0014343794,6.255377,6.3136024,0.008559414,0.08758141,-0.043282874,-0.18753546,7.2466087,6.2815604,-0.015649997,0.015530473,0.0026954617
-0.16227639,6.7295237,5.7772117,-0.019307654,0.020037234,-0.13334179,-0.1812207,7.117337,6.155473,-0.01656441,0.016657162,-0.03131385
-0.24424578,7.1310477,7.6635337,0.017227877,1.99E-04,-0.15166773,-0.19697696,7.1207647,6.5324883,-0.008116338,0.01254254,-0.06140232
1.176652,13.628574,4.975131,-0.1095411,-0.0024193204,-0.07807308,0.14643025,8.747717,6.143149,-0.03347253,0.008802075,-0.06557001
-1.7992132,6.305026,16.506308,0.10641413,-0.02586489,-0.20466752,-0.3399806,8.137044,8.733938,0.001499135,1.35E-04,-0.10034439
1.5860428,13.963749,-2.222727,0.2500546,-0.17666121,0.12124336,0.14152524,9.59372,5.994772,0.063638,-0.0440638,-0.044947453
-0.70271564,-0.8928317,-2.4597428,-0.19320048,-0.074443184,0.18913664,-0.06953499,6.972082,3.8811433,-5.72E-04,-0.051658645,0.013573572
3.3516908,15.080595,12.201717,-0.03891353,0.05942346,-0.09913335,0.7857715,8.99921,5.9612865,-0.0101571,-0.023888119,-0.014603158
-3.0225973,7.5272136,1.6233926,-0.008253927,0.039061304,-0.107801825,-0.16632068,8.631211,4.876813,-0.009681307,-0.008150764,-0.037902825
5.4728622,18.12948,2.0040543,0.06301361,-0.048612326,-0.07318615,1.2434751,11.005778,4.158623,0.008492423,-0.018266154,-0.046723656
0.8426751,11.938341,3.6559825,-0.09342591,-0.06984716,0.050964825,1.143275,11.238919,4.032963,-0.01698716,-0.031161405,-0.022301536
-1.8758237,1.7658151,-8.009264,-0.022856489,-0.055302758,0.00802977,0.38850033,8.870644,1.0224061,-0.018454492,-0.037196744,-0.0147187095
-0.39267987,10.442028,4.0139003,0.13224496,-0.041049246,0.05212839,0.19320528,9.26349,1.7702796,0.01922037,-0.03815987,0.0019930657
0.031075597,10.691016,3.3627052,0.07342741,0.008983491,-0.014659494,0.15267286,9.620371,2.168386,0.03277213,-0.026374029,-0.0021700743
-1.6615522,3.7804492,4.7273417,-0.047349278,-0.003873759,-0.017801087,-0.3008834,8.160391,2.808125,0.012741778,-0.020748962,-0.0060778274
-0.28574345,8.493632,6.29844,-0.032223087,0.0060164253,-0.02315342,-0.29709843,8.243701,3.6807036,0.0015005618,-0.014057615,-0.010346726
-0.27046683,6.686428,3.5060098,0.11659517,0.05110406,-0.023095235,-0.29044053,7.8543825,3.6370301,0.030274214,0.002232804,-0.013533853
-0.202178,6.7811666,6.1140957,0.10222532,-0.0060845055,-0.019430052,-0.2683749,7.5860786,4.2562966,0.048261993,1.53E-04,-0.015007903
-0.52367127,8.499445,4.607409,0.0019853292,-0.0056190873,-0.011517905,-0.33219898,7.81442,4.3440747,0.036692828,-0.0012896643,-0.014135404
-0.62627554,7.569737,6.4360437,-0.028616086,-0.0031174505,-0.06509947,-0.40571812,7.753249,4.867067,0.0203656,-0.0017466109,-0.02687642
-0.037555274,7.957467,5.8197346,-0.049094595,-0.057629853,0.04316903,-0.3136774,7.8043036,5.1052337,0.00300055,-0.015717423,-0.009365058
-0.078596964,6.1237016,6.8750772,-0.02215837,-0.018825399,0.031533517,-0.25490728,7.3841534,5.5476947,-0.0032891799,-0.016494416,8.60E-04
-0.13970348,6.489201,6.67591,-0.0329794,-0.03046092,0.028740989,-0.22610633,7.160415,5.8297486,-0.010711735,-0.01998604,0.007829937
0.2886122,6.281941,7.3535542,0.06737696,0.030392844,-0.007794535,-0.0974267,6.940797,6.2107,0.008810438,-0.0073913196,0.0039238194
-0.4582326,6.3097577,7.9976807,-0.012209998,0.006772743,-0.017393839,-0.18762818,6.783037,6.657445,0.003555329,-0.003850304,-0.0014055949
0.16776732,5.8967185,8.076,-0.09616026,-0.007713482,0.010298694,-0.098779306,6.5614576,7.012084,-0.021373568,-0.0048160986,0.0015204772
-0.75236475,5.9464245,6.4538293,-0.06928221,0.02515687,-0.05503474,-0.26217568,6.4076996,6.8725204,-0.03335073,0.0026771436,-0.0126183275
-0.059216,6.503451,4.0295186,0.08657552,0.01974634,0.034791455,-0.21143577,6.4316373,6.16177,-0.0033691656,0.006944443,-7.66E-04
0.10768674,6.7308908,-0.1537695,-0.1376409,-0.087824024,0.057306193,-0.13165514,6.5064507,4.582885,-0.036937095,-0.016747672,0.013752136
0.20447676,5.6195726,7.1019454,0.009664777,0.00944891,0.001746593,-0.047622167,6.284731,5.21265,-0.025286626,-0.010198526,0.01075075
-0.21825275,5.929437,7.2142415,0.12689263,0.002002182,-0.019371875,-0.09027981,6.1959076,5.713048,0.012758188,-0.007148349,0.003220094
0.14451031,6.622358,6.274728,-0.13857172,-0.013007639,-0.0055256044,-0.03158228,6.3025203,5.853468,-0.025074288,-0.008613172,0.0010336693
-0.38310346,5.6427155,7.0180397,-0.074227296,-0.0294719,-0.0051183687,-0.11946258,6.137569,6.144611,-0.03736254,-0.013827854,-5.04E-04
0.07473935,6.3173957,6.4121037,0.077558026,0.020444473,-0.011285193,-0.07091209,6.1825256,6.211484,-0.008632397,-0.005259772,-0.0031995536
-0.038353276,5.481856,6.4671674,-0.0098829,-0.018825404,0.08622045,-0.062772386,6.007358,6.275405,-0.008945023,-0.00865118,0.019155448
-0.13901944,4.785514,8.467493,-0.01459529,0.023295175,0.010705944,-0.08183415,5.701897,6.823427,-0.010357589,-6.65E-04,0.017043073
-0.24823593,5.947451,6.959896,-0.17615445,0.008227175,-0.02850576,-0.123434596,5.7632856,6.8575444,-0.051806804,0.0015583499,0.0056558643
-0.22668904,5.134597,8.03439,0.08256131,0.024051484,0.015069261,-0.14924821,5.6061134,7.151756,-0.018214777,0.0071816333,0.008009214
0.0218412,5.0101037,4.123231,-0.09383317,-0.0014303033,0.029439123,-0.10647586,5.457111,6.3946247,-0.037119374,0.0050286492,0.013366692
-0.2290831,5.661527,7.903057,0.05108721,-0.013298525,0.031184448,-0.13712767,5.508215,6.771733,-0.015067726,4.47E-04,0.017821131
0.30081072,5.5959735,8.294321,-0.019656723,0.014975781,-0.078189425,-0.02764307,5.5301547,7.15238,-0.016214976,0.004079087,-0.0061815083
-0.11108824,4.7724037,8.502608,0.0149007635,0.009507084,-0.0496824,-0.04850436,5.340717,7.489937,-0.008436041,0.0054360866,-0.017056732
0.0099847205,5.2484875,8.682621,0.018449608,-0.028424703,0.006168086,-0.03388209,5.3176594,7.788108,-0.0017146287,-0.0030291104,-0.011250528
0.08613987,5.5015783,8.130382,0.027408946,-0.02417774,0.07417769,-0.0038765986,5.363639,7.8736763,0.005566265,-0.008316267,0.010106526
-0.1169025,4.414088,9.322415,0.0051851077,0.017186526,0.027519261,-0.032133073,5.126251,8.235861,0.005470976,-0.0019405689,0.014459711
0.15306066,6.774327,7.0615873,-0.007090362,0.039119482,-0.056954607,0.038265165,1.6935817,1.7653968,-0.0017725904,0.0097798705,-0.014238652
-0.46188062,6.649719,7.038789,-0.0036578854,0.055700105,-0.05526746,-0.08677128,2.9326162,3.0837448,-0.0022439142,0.02125993,-0.024495855
-0.688066,6.6558757,7.332463,0.0029161861,0.0086926,-0.0012786565,-0.23709497,3.863431,4.1459246,-9.54E-04,0.018118098,-0.018691555
-0.250402,7.1722026,6.5565476,0.012980907,-0.013763951,0.022050565,-0.24042173,4.6906238,4.7485805,0.0025298102,0.010147586,-0.008506024
-0.4999583,7.395881,6.4958963,0.020485818,-0.036976807,-0.042933807,-0.30530587,5.366938,5.1854095,0.007018812,-0.0016335119,-0.01711297
-0.1904355,7.599265,6.4822154,0.021125771,-0.024526808,-0.055849224,-0.27658826,5.9250197,5.509611,0.010545552,-0.007356836,-0.026797034
-0.23865952,7.7620645,6.101896,0.02769984,-0.15711355,-0.5338945,-0.2671061,6.384281,5.6576824,0.014834124,-0.044796016,-0.1535714
-2.0236313,7.1619425,6.932421,0.07185665,-0.09829599,0.2535392,-0.70623744,6.5786963,5.976367,0.029089754,-0.058171008,-0.051793747
-1.2113477,7.411385,5.6594443,0.022405677,0.092526495,0.7019722,-0.832515,6.7868686,5.897136,0.027418735,-0.020496633,0.13664773
0.23970425,7.4836636,5.88905,-0.017038729,0.06465944,0.09168913,-0.56446016,6.961067,5.895115,0.016304368,7.92E-04,0.12540808
0.23309195,7.781673,6.6468396,-0.023787329,0.069953606,-0.04281745,-0.36507213,7.1662188,6.083046,0.006281444,0.01808269,0.0833517
0.20675689,7.3727374,6.2664046,-0.017445967,0.06169238,-0.03833777,-0.22211488,7.2178483,6.1288857,3.50E-04,0.028985113,0.052929334
-0.4405618,7.9264584,6.1969767,-0.05275977,-0.04715789,-0.025422346,-0.2767266,7.395001,6.1459084,-0.012927749,0.009949362,0.033341415
-0.2670467,7.919732,6.8116903,0.032237694,0.050987713,0.150274,-0.27430663,7.5261836,6.312354,-0.0016363887,0.02020895,0.06257456
0.06436497,7.20857,6.172237,0.0043124445,0.0611106,-0.027516741,-0.18963873,7.44678,6.2773247,-1.49E-04,0.030434363,0.040051732
-0.1678626,7.3102627,6.950091,-0.037691776,0.015266666,-0.11501583,-0.1841947,7.412651,6.445516,-0.009534829,0.026642438,0.0012848414
-0.35528636,7.360425,5.857014,-0.0059268074,-0.04756513,-0.033276327,-0.22696762,7.3995943,6.2983904,-0.008632824,0.008090546,-0.0073554507
-0.09695168,7.5392985,6.724704,0.101876274,-0.014520261,0.021876032,-0.19446364,7.4345202,6.4049687,0.01899445,0.0024378444,-4.76E-05
-0.4157088,6.859261,6.1807876,-0.0135480715,-0.043725412,-0.034672588,-0.24977493,7.2907057,6.3489237,0.01085882,-0.00910297,-0.0087038325
-0.22292687,7.2076583,7.040839,-0.047698334,-0.017080074,-0.019197345,-0.24306291,7.2699437,6.5219026,-0.0037804684,-0.011097247,-0.011327211
-0.13263515,7.027303,6.4614663,0.10466879,0.01788466,-0.0054092575,-0.21545598,7.209284,6.5067935,0.023331847,-0.00385177,-0.009847723
-0.015324365,6.958672,5.432575,0.011293759,0.028298445,-0.057769082,-0.16542308,7.146631,6.238239,0.020322325,0.004185784,-0.021828063
-0.1581722,6.8249445,6.1065702,-0.0075557795,-0.055128217,-0.19343922,-0.16361037,7.0662093,6.205322,0.013352798,-0.010642717,-0.06473085
-0.64599836,6.5120015,6.0580044,-0.04350955,-0.052393876,0.08470782,-0.28420737,6.927657,6.1684923,-8.63E-04,-0.021080507,-0.027371183
0.12398947,8.198131,3.658547,0.083375774,0.0029911934,-0.016055757,-0.18215817,7.2452755,5.541006,0.020196851,-0.015062582,-0.024542326
-0.7515666,7.821346,5.292691,0.122296594,-0.09055837,0.07039615,-0.32451028,7.389293,5.4789276,0.045721788,-0.03393653,-8.08E-04
-0.27856117,8.528175,5.698662,-0.14636753,-0.01725461,0.14119829,-0.313023,7.6740136,5.533861,-0.0023005418,-0.02976605,0.034693792
-0.11941054,7.7263794,6.2762103,0.019496787,0.046682566,-0.08098195,-0.2646199,7.687105,5.7194486,0.0031487904,-0.010653894,0.0057748575
-0.2866555,8.175216,3.375588,0.048585575,0.015790263,-0.061027035,-0.2701288,7.8091326,5.1334834,0.014507987,-0.004042855,-0.010925615
-0.17664091,8.602163,5.272284,0.05155265,-0.0606551,0.038573004,-0.24675682,8.00739,5.1681833,0.023769151,-0.018195916,0.0014490392
-0.57862145,6.871686,4.478812,-0.07021304,-0.002884744,-0.043980993,-0.32972297,7.723464,4.9958405,2.74E-04,-0.014368122,-0.009908469
-0.30067816,8.554282,5.5017753,-0.027336169,0.015964797,-0.021582622,-0.32246178,7.9311686,5.122324,-0.0066288393,-0.0067848926,-0.012827007
-0.31698078,7.307299,1.8596677,0.0342157,-0.04058382,-0.043224685,-0.32109153,7.7752013,4.3066597,0.003582295,-0.015234624,-0.020426426
-0.34354386,8.437199,5.299873,0.13806272,-0.08084272,0.020014359,-0.32670462,7.9407005,4.554963,0.0372024,-0.031636648,-0.01031623
-0.39404798,6.4256997,2.6912181,-0.088015385,-3.40E-05,-0.0076200003,-0.34354046,7.56195,4.089027,0.005897954,-0.023735996,-0.009642173
-0.21335047,7.6463485,5.678483,0.12811434,0.037723217,-0.10250766,-0.31099296,7.58305,4.486391,0.03645205,-0.008371193,-0.032858543
-0.12465483,8.043541,4.585064,-0.06020651,-0.008702501,-0.03426534,-0.2644084,7.6981726,4.5110593,0.012287412,-0.00845402,-0.03321024
-0.40613243,7.397819,6.3800683,-0.057646707,-0.06018966,-0.011692435,-0.2998394,7.623084,4.9783115,-0.005196117,-0.021387931,-0.027830789
-0.31777877,6.3244643,0.5009596,0.34139344,0.0544202,-0.07685134,-0.30432424,7.298429,3.8589735,0.081451274,-0.0024358984,-0.040085927
-0.058190208,2.1886017,-9.150907,1.3117377,0.079785615,-0.013554126,-0.24279073,6.0209723,0.6065035,0.38902286,0.01811948,-0.033452976
0.06299704,7.361109,-6.059555,-1.0403243,-0.05954968,-0.18599257,-0.16634378,6.3560066,-1.0600111,0.031686068,-0.0012978092,-0.071587875
-1.3026655,7.634263,7.8389864,-0.34952366,0.00270032,-0.06469223,-0.4504242,6.6755705,1.1647382,-0.063616365,-2.98E-04,-0.06986396
-0.07369473,4.196452,-0.7172949,0.029910587,-0.0494268,-0.022687992,-0.35624182,6.055791,0.6942299,-0.040234625,-0.012580408,-0.058069967
-0.40100226,6.617912,2.3908157,0.1634863,-0.11115322,0.0941326,-0.36743194,6.196321,1.1183764,0.0106956065,-0.03722361,-0.020019323
-2.6563003,17.964287,2.3140903,-0.37901968,-0.19417264,0.0076225307,-0.93964905,9.138312,1.4173049,-0.086733215,-0.07646087,-0.013108859
8.908394,13.447821,15.443329,-0.017213292,0.04644987,-0.07167354,1.5223615,10.21569,4.923811,-0.06935324,-0.045733184,-0.02775003
-3.685763,-2.6740413,-0.36011806,0.16220641,0.14773706,-0.15265673,0.22033048,6.993257,3.6028287,-0.0114633255,0.0026343763,-0.058976706
-3.6965363,-4.566576,16.272882,0.17285292,0.07728399,-0.06550671,-0.7588862,4.1032987,6.770342,0.034615736,0.02129678,-0.060609207
3.6988347,7.6660714,7.1250315,-0.049501862,-0.10481188,0.0025028968,0.35554397,4.993992,6.8590145,0.013586337,-0.010230385,-0.04483118
0.1723274,9.258147,6.303856,-0.02239108,-0.07397777,-0.024782393,0.30973983,6.060031,6.720225,0.004591983,-0.02616723,-0.039818984
0.76366985,10.742489,13.161752,0.07947789,-0.02016349,-0.03205459,0.42322233,7.230645,8.330606,0.023313459,-0.024666294,-0.037877884
2.022966,13.664486,8.518396,-0.11058826,-0.09602706,0.003142856,0.82315826,8.839106,8.377554,-0.01016197,-0.042506486,-0.0276227
5.81043,14.446158,0.6729355,0.07336924,-0.0036992151,0.026239352,2.0699763,10.240869,6.4513993,0.010720834,-0.032804668,-0.014157187
-2.2074068,-2.1066394,28.72459,0.041371558,0.014743069,0.019025333,1.0006306,7.1539917,12.019697,0.018383514,-0.020917734,-0.005861557
-5.4322577,4.8039265,10.415721,0.10874122,0.017884675,0.003375561,-0.6075914,6.5664754,11.618703,0.04097294,-0.011217132,-0.0035522776
-3.3637564,12.41716,10.367838,-0.1804596,-0.03098452,-0.005700142,-1.2966326,8.029146,11.305986,-0.014385194,-0.01615898,-0.0040892437
-0.5737194,4.7393427,8.521532,0.16866413,0.039177656,-0.15178408,-1.1159043,7.2066956,10.609873,0.031377137,-0.0023248205,-0.04101295
0.086823985,6.061797,8.958056,-0.22438371,-0.15059763,0.03275525,-0.81522226,6.920471,10.1969185,-0.032563075,-0.039393023,-0.0225709
-0.84527844,3.3417587,6.841103,-0.26859868,-0.023654154,0.0053536,-0.8227363,6.025793,9.3579645,-0.09157197,-0.035458304,-0.0155897755
-0.68190974,4.733756,8.269581,0.26238823,-0.018999934,-0.042701088,-0.7875297,5.7027836,9.085869,-0.0030819178,-0.031343713,-0.022367604
0.14895645,5.395212,7.5596743,0.09890919,0.052500326,-0.07481513,-0.55340815,5.6258907,8.70432,0.02241586,-0.010382704,-0.035479486
-0.70482475,4.7134633,8.579332,-0.10878482,-0.07316326,-0.058059968,-0.5912623,5.3977838,8.673073,-0.010384308,-0.026077844,-0.041124605
-0.42904735,5.184189,7.978072,-0.02466001,-0.052102987,0.06283306,-0.55070853,5.344385,8.499323,-0.013953233,-0.03258413,-0.015135188
-0.7060788,5.5018067,7.3678045,-0.050083596,0.01788466,-0.006340095,-0.5895511,5.3837404,8.216443,-0.022985823,-0.019966934,-0.012936414
-0.4613108,4.9939156,9.77775,-0.052759778,0.015673913,0.15149571,-0.557491,5.2862844,8.60677,-0.030429311,-0.011056722,0.028171618
-0.37557912,4.974534,8.730275,0.09198608,0.13156366,-0.0112851905,-0.512013,5.208347,8.637646,1.75E-04,0.024598375,0.018307416
-0.53655386,4.923574,9.142288,-0.02186749,-0.0091097485,-0.024607867,-0.51814824,5.1371536,8.763806,-0.0053359694,0.016171344,0.0075785946
-1.3096197,6.261933,12.850519,0.055392366,-0.008644326,0.10413916,-0.7160161,5.4183483,9.785484,0.009846114,0.009967426,0.031718735
-0.3364184,2.4361627,13.748306,-0.07277286,0.03964308,0.037002206,-0.6211167,4.672802,10.77619,-0.01080863,0.01738634,0.033039603
0.33033788,7.639736,6.2727327,0.042476937,0.06954636,0.022283277,-0.38325304,5.4145355,9.650326,0.0025127623,0.030426344,0.030350521
-0.84995276,5.5903873,19.753902,-0.036528226,-0.08776585,-0.21135792,-0.49992797,5.4584985,12.17622,-0.007247485,8.78E-04,-0.03007659
-1.1563973,6.9885416,6.367299,-0.05357428,-0.06519294,0.057480715,-0.66404533,5.841009,10.7239895,-0.018829184,-0.015639514,-0.008187264
-1.025919,3.9300802,9.793255,-0.02809247,0.086534224,0.23026815,-0.75451374,5.363277,10.491306,-0.021145005,0.009903921,0.05142659
0.026287407,4.750059,6.3086443,0.06138466,0.0052019465,-0.15928899,-0.5593134,5.2099724,9.445641,-5.13E-04,0.008728427,-0.0012523048
-0.4788675,5.3713274,6.0776134,-0.019249478,-0.037034985,-0.14468642,-0.5392019,5.250311,8.603634,-0.005196811,-0.0027124258,-0.03711083
-0.25525862,6.52648,7.2612557,2.52E-04,0.013149003,-0.015974307,-0.12595046,2.8767922,3.178236,6.29E-05,0.0032872506,-0.003993577
-0.5521268,6.469022,7.1721954,-0.003169192,0.004108205,-0.026236836,-0.23249455,3.7748497,4.176726,-7.45E-04,0.0034924892,-0.009554392
-0.32181454,6.6591134,7.2200775,-0.002436155,-0.0063986676,0.014568929,-0.25482455,4.4959154,4.937564,-0.001167874,0.0010197,-0.0035235616
-0.7580194,7.5430145,6.7493973,0.008559409,0.037827935,-0.08365813,-0.38062325,5.2576904,5.390522,0.0012639466,0.010221759,-0.023557205
-1.1324565,7.2614684,6.6636887,0.037392225,0.008750776,-0.1532967,-0.5685816,5.758635,5.7088137,0.010296016,0.009854013,-0.055992078
-1.3756969,7.191561,6.3553286,0.012468944,-0.10951264,-0.19923371,-0.7703604,6.1168666,5.8704424,0.010839248,-0.01998765,-0.091802485
-1.0869685,7.6148376,6.129326,0.02150974,-0.11610998,-0.13350467,-0.84951246,6.491359,5.9351635,0.013506871,-0.04401823,-0.10222803
-1.55286,7.3376007,6.683799,0.032016616,-0.047448777,0.18096848,-1.0253494,6.7029195,6.122322,0.018134307,-0.044875868,-0.031428903
-0.48940143,7.845151,6.3218117,-0.014164759,0.14949402,0.44486204,-0.8913624,6.988477,6.1721945,0.010059541,0.003716603,0.08764383
-0.12166788,7.9375625,5.7601557,0.014423716,0.13874279,0.10888644,-0.6989388,7.2257485,6.069185,0.011150585,0.03747315,0.09295449
-0.3040982,7.704856,6.5348864,0.01344633,-0.029611526,-0.2038763,-0.60022867,7.3455253,6.1856103,0.0117245205,0.02070198,0.018746793
-0.4927532,8.520765,5.66535,0.02541928,0.048334815,0.09153789,-0.5733598,7.639335,6.0555453,0.01514821,0.027610188,0.03694457
0.07799996,7.477417,5.6212983,0.09481351,0.023900222,-0.23759602,-0.41051984,7.5988555,5.9469833,0.035064537,0.026682697,-0.031690583
-0.7230655,7.8595147,6.1082582,0.017844558,-0.11928646,-0.14572197,-0.48865625,7.6640205,5.987302,0.030759543,-0.009809591,-0.06019843
-0.65315783,7.205926,5.648591,-0.026626397,-0.114643894,0.13625318,-0.52978164,7.5494967,5.902624,0.01641306,-0.036018167,-0.011085529
-0.60766995,7.5817986,6.1489577,-0.05301575,0.060063414,0.2129778,-0.5492537,7.5575724,5.9642076,-9.44E-04,-0.0119977705,0.0449303
-0.34623432,7.2356124,6.8973527,0.015156754,0.13385588,0.03582702,-0.49849886,7.4770823,6.197494,0.0030810814,0.024465643,0.04265448
-0.56840676,7.13937,5.8468223,-0.037621953,0.03196364,-0.10589359,-0.51597583,7.3926544,6.109826,-0.0070946775,0.026340142,0.005517464
-0.8686267,6.6227236,6.9428406,-0.013676065,-0.07090598,0.03167314,-0.60413855,7.2001715,6.31808,-0.008740025,0.0020286106,0.012056383
-0.3912434,7.468797,6.1456056,-0.0021918071,-0.0310776,0.1384523,-0.55091476,7.267328,6.2749615,-0.00710297,-0.0062479414,0.043655366
-0.25238568,7.2801423,7.5179033,0.20428047,0.085964076,-0.005711781,-0.47628248,7.2705317,6.585697,0.045742888,0.016805064,0.03131358
0.07225404,7.2260346,-0.08862696,-0.052527066,0.024388915,0.0035733627,-0.33914834,7.2594075,4.917116,0.0211754,0.018701026,0.024378525
-0.5166942,5.682321,2.8331306,-0.07647297,0.11088736,-0.06948606,-0.3835348,6.865136,4.3961196,-0.0032366924,0.04174761,9.12E-04
-0.94332266,8.425959,5.6069336,0.010025485,-0.08605543,0.032894872,-0.5234817,7.2553415,4.698823,7.89E-05,0.00979685,0.008908003
-0.34767082,8.378077,5.308629,0.014912401,-0.018127272,0.11621681,-0.479529,7.536025,4.8512745,0.0037872393,0.0028158198,0.035735205
-0.55021155,8.509752,5.866933,0.023464512,-0.002000443,-0.06117829,-0.49719962,7.779457,5.1051893,0.008706558,0.0016117541,0.011506831
-0.8226601,7.325631,4.9452047,-0.051060993,-0.04622705,0.016279351,-0.57856476,7.6660004,5.065193,-0.0062353304,-0.010347947,0.012699962
-0.6838023,7.875315,5.1874876,-0.039821073,0.015348116,0.08640662,-0.60487413,7.718329,5.095767,-0.014631766,-0.003923931,0.031126626
-0.583729,8.701281,6.35485,-0.011476966,0.02878714,-0.024282068,-0.59958786,7.964067,5.4105377,-0.013843066,0.0042538363,0.017274452
-0.48557097,8.077856,5.408702,0.002695118,-0.0059099756,-0.01768473,-0.57108366,7.992514,5.410079,-0.00970852,0.0017128834,0.008534657
-0.84803754,7.5324807,6.2188654,0.008803765,-0.024235915,0.016279347,-0.64032215,7.877506,5.6122756,-0.0050804485,-0.004774316,0.01047083
-0.4759945,7.635427,5.0069723,-0.06132352,-0.01690554,0.051220812,-0.59924024,7.816986,5.46095,-0.019141216,-0.0078071225,0.020658325
-0.45732054,8.083602,6.9299126,0.026152316,0.0063073155,0.00919332,-0.56376034,7.8836403,5.828191,-0.007817833,-0.004278513,0.017792074
-0.4228455,6.6385245,6.504241,-0.019784715,-0.023747226,0.047066934,-0.5285316,7.5723615,5.9972034,-0.010809554,-0.009145692,0.025110789
-0.81308365,9.250007,4.9691453,-0.030291595,-0.01641685,0.028496644,-0.59966964,7.9917727,5.7401886,-0.015680064,-0.010963481,0.025957253
-0.20402488,8.504006,5.8865647,0.016867172,0.05126696,0.043646082,-0.50075847,8.119831,5.7767825,-0.0075432546,0.0045941295,0.03037946
-0.5947418,7.143201,7.1856027,0.043256532,0.0121716205,-0.032589827,-0.5242543,7.8756733,6.1289873,0.005156692,0.006488502,0.014637139
-0.38166702,6.307181,5.8315,0.08772748,0.010705542,0.014813272,-0.4886075,7.48355,6.0546155,0.02579939,0.007542762,0.014681172
-0.59378415,7.472149,5.714189,-0.030291602,0.04491397,-0.012309119,-0.51490164,7.4806995,5.969509,0.011776642,0.016885564,0.007933599
-0.47886738,6.740513,6.53728,-0.119233504,0.028298449,-0.021838605,-0.50589305,7.295653,6.111452,-0.020975895,0.019738786,4.91E-04
-0.62347096,8.592587,1.7471676,0.14417137,-0.020082038,0.018234115,-0.5352875,7.6198864,5.020381,0.020310923,0.00978358,0.00492644
-0.106345676,7.0057793,6.3352184,-0.27512616,0.005574281,-0.002290938,-0.42805204,7.4663596,5.3490906,-0.05354835,0.008731255,0.0031220955
-0.29547945,7.6756477,6.623468,-0.029069848,-0.017149888,0.06197203,-0.3949089,7.5186815,5.667685,-0.047428727,0.0022609695,0.01783458
-0.83510935,5.563095,8.587587,-0.1346273,0.022434145,-0.002290938,-0.504959,7.029785,6.3976607,-0.069228366,0.0073042633,0.012803201
-0.52866477,5.655986,6.186305,0.03690354,0.031230599,0.012858508,-0.5108854,6.6863356,6.344822,-0.04269539,0.013285847,0.012817027
0.23792572,6.6576777,6.911238,0.012713294,-0.005909976,0.02922968,-0.32368264,6.679171,6.486426,-0.028843217,0.008486891,0.01692019
-0.8140413,5.6914186,7.4101686,-0.005612649,0.010216853,-0.001802247,-0.4462723,6.432233,6.7173615,-0.023035575,0.008919382,0.012239581
-0.43577355,6.3861866,7.320151,0.108496875,0.003619512,-0.010354352,-0.44364762,6.420721,6.8680587,0.009847537,0.007594414,0.0065910975
-0.23514812,5.911676,8.134623,-0.06792085,-0.010796894,0.040958285,-0.39152274,6.29346,7.1846995,-0.00959456,0.0029965872,0.015182895
-0.28446656,5.790534,8.055618,0.03103922,-0.005176937,0.0069942027,-0.3647587,6.1677284,7.402429,5.64E-04,9.53E-04,0.013135722
-0.4491806,5.913112,7.8080673,0.09579091,0.033185367,0.019211499,-0.38586417,6.1040745,7.5038385,0.02437064,0.009011246,0.014654666
-0.17146513,5.9839773,7.533226,0.02102105,0.024144566,-0.002535284,-0.33226442,6.07405,7.5111856,0.023533244,0.012794577,0.010357179
-0.6435814,4.7524533,8.953883,-0.029314198,0.013393348,0.01212547,-0.41009367,5.743651,7.87186,0.010321383,0.01294427,0.0107992515
-0.1341172,6.1118226,6.6914597,-0.027848125,-0.014217734,-0.012309119,-0.34109956,5.835694,7.57676,7.79E-04,0.006153769,0.005022159
-0.4716851,4.107004,9.571561,-0.011232617,-7.79E-04,-0.03820978,-0.37374595,5.4035215,8.07546,-0.0022238994,0.0044206483,-0.0057858266
0.959986,3.4333048,13.197663,-0.01392041,-0.0640643,0.0023516333,-0.040312976,4.9109674,9.356011,-0.005148027,-0.012700588,-0.0037514616
0.19866252,3.22023,5.005057,0.032749657,-0.0013895785,-0.0069335094,0.019430898,4.488283,8.268272,0.004326394,-0.009872836,-0.0045469734
-0.96247536,-0.10996135,4.7967706,-0.029314216,0.008628603,0.008826802,-0.22604567,3.338722,7.400397,-0.004083758,-0.0052474765,-0.0012035295
-0.6368779,-1.000566,21.86909,0.07722059,0.0592082,-0.057635285,-0.3287537,2.2539,11.0175705,0.016242329,0.010866442,-0.015311468
-0.46210873,0.9697771,18.950684,-0.022472538,-0.01653902,-0.0049787415,-0.36209247,1.9328693,13.000849,0.0065636123,0.004015076,-0.012728287
1.2185485,1.8819288,2.0315864,-0.142202,0.0076512215,-0.04505147,0.033067793,1.9201342,10.2585335,-0.030627795,0.0049241125,-0.020809082
0.055016592,4.2472982,6.3649054,-8.48E-04,-0.039385367,0.013958065,0.038554993,2.5019252,9.285127,-0.02318282,-0.006153257,-0.0121172955
-0.4668969,6.7371607,0.21925382,0.05266383,0.01656985,0.08286361,-0.08780797,3.560734,7.0186586,-0.004221158,-4.72E-04,0.01162793
1.4148645,13.174893,9.984783,-0.07549558,0.02414457,-0.008033064,0.28786016,5.964274,7.76019,-0.022039764,0.005681782,0.0067126816
0.8857689,3.9863415,12.388458,0.08113014,0.084253654,-0.10039582,0.43733734,5.469791,8.917257,0.0037527122,0.02532475,-0.020064443
-0.16763459,6.9598117,6.831754,-0.0034157517,-0.016830597,-2.69E-04,-0.041908648,1.7399529,1.7079386,-8.54E-04,-0.0042076493,-6.71E-05
0.19626842,7.148946,6.48461,0.0023671011,-0.015893936,-0.009594395,0.017635621,3.0922012,2.9021063,-4.87E-05,-0.007129221,-0.0024489474
0.10050447,7.0866995,6.747961,0.0011453726,0.022346195,0.047826886,0.038352832,4.090826,3.86357,2.50E-04,2.40E-04,0.010120011
0.15556875,7.3979325,4.4352612,0.001023199,0.019169696,0.09132046,0.067656815,4.9176025,4.0064926,4.43E-04,0.0049721487,0.030420125
0.5697478,7.7857766,7.7319355,0.0070096734,-0.0024549142,0.014840194,0.19317956,5.634646,4.9378533,0.0020848,0.003115383,0.026525142
-0.0024417788,6.758708,2.6348994,-0.0012980872,0.11959584,0.32283822,0.14427423,5.9156613,4.362115,0.0012390782,0.032235496,0.10060341
2.054089,8.168833,7.741512,-0.010827577,0.1668768,0.46394792,0.62172794,6.4789543,5.206964,-0.0017775855,0.06589582,0.19143954
2.6621904,6.3301644,4.9882984,0.042317655,0.11825194,0.05014817,1.1318436,6.4417567,5.1522975,0.009246225,0.07898485,0.1561167
-1.0630275,7.840841,6.604315,0.053924084,0.14085396,-0.024988186,0.5831258,6.7915277,5.5153017,0.02041569,0.09445213,0.11084047
-0.83798224,8.075463,1.4929144,0.009575304,-0.05059105,-0.62155867,0.22784883,7.1125116,4.5097046,0.017705593,0.058191333,-0.07225931
0.79000497,9.547833,4.954781,-0.010827577,-0.16115758,-0.6898533,0.36838788,7.721342,4.6209736,0.010572301,0.003354106,-0.22665781
-0.83319396,9.097742,2.5367415,0.040118534,-0.19255601,-0.19835159,0.06799242,8.065442,4.0999155,0.017958859,-0.04562342,-0.21958125
-2.458787,4.8913107,8.591417,0.038652465,-0.10581323,0.24757965,-0.56370246,7.271909,5.2227907,0.02313226,-0.060670875,-0.102791026
1.1874253,9.181537,8.165267,0.02191477,-0.032875977,0.10793599,-0.12592053,7.749316,5.95841,0.022827888,-0.05372215,-0.050109275
-0.9888105,6.356499,4.375409,-0.016447539,0.019291867,0.27958894,-0.34164304,7.401112,5.5626597,0.013009031,-0.035468645,0.032315277
1.3382535,15.394222,2.8814914,0.034742933,0.11947368,0.092786536,0.07833111,9.399389,4.892368,0.018442508,0.003266938,0.047433093
0.7516994,7.4482083,9.496386,-0.035262167,0.12521581,-0.03060814,0.24667318,8.911594,6.043372,0.005016339,0.033754155,0.027922785
-1.051057,3.2968411,-1.9761348,0.018005243,0.048491206,-0.055897944,-0.07775937,7.507906,4.0384955,0.008263565,0.03743842,0.0069676023
0.47398388,8.010822,8.057533,0.0065209814,0.061563715,-0.015336522,0.060176447,7.633635,5.043255,0.007827919,0.043469742,0.001391571
-1.1300623,4.369397,5.2564373,-0.05884155,-0.04704804,-0.15143718,-0.23738326,6.8175755,5.0965505,-0.008839447,0.020840297,-0.036815617
-1.5466355,3.148407,15.299682,-0.024510955,-0.047781076,0.014595852,-0.5646963,5.9002833,7.647333,-0.012757324,0.0036849529,-0.023962751
0.6367826,9.66275,8.105415,0.0487928,-0.075636506,0.026935313,-0.26432657,6.8409,7.7618537,0.0026302077,-0.016145412,-0.011238235
-0.77812976,2.6264935,22.642384,-0.012660166,-0.050468877,-0.036472443,-0.39277738,5.787298,11.481986,-0.0011923858,-0.02472628,-0.017546788
1.8386201,6.6294265,11.12198,-0.098181255,0.024056625,-0.010938296,0.16507196,5.9978304,11.391985,-0.025439603,-0.012530553,-0.015894664
4.5439515,8.638076,13.796188,-0.039049536,-0.07856866,0.107080765,1.2597919,6.6578918,11.993036,-0.028842086,-0.02904008,0.014849193
1.7763736,25.925861,10.078152,-0.028176164,0.05459986,0.13921227,1.3889372,11.474884,11.514315,-0.028675605,-0.008130096,0.04593996
-0.19396968,-2.6189766,-3.5921516,0.069195695,0.050690327,-0.07801124,0.9932105,7.951419,7.737698,-0.0042077787,0.00657501,0.01495216
-0.21072836,5.8178267,-3.4844172,-0.05395464,0.11544198,-0.16157752,0.6922258,7.4180207,4.932169,-0.016644493,0.03379175,-0.029180259
-1.5322709,1.5826665,9.470051,0.076770425,-0.06451878,-0.044047166,0.1361016,5.9591823,6.0666394,0.0067092367,0.009214118,-0.032896984
0.19866252,15.746156,4.4592023,0.04818195,-0.15113938,0.19919918,0.15174183,8.405926,5.66478,0.017077416,-0.030874256,0.025127057
2.1905527,11.604364,0.4586637,-0.12017238,0.028332666,-0.019490404,0.66144454,9.205536,4.3632507,-0.017235033,-0.016072527,0.013972692
-0.3088864,9.0211315,8.134145,0.0038331463,0.05533289,-0.057486188,0.4188618,9.159435,5.305974,-0.011967989,0.001778828,-0.0038920268
0.28963828,21.46805,8.665634,0.015195243,-0.08993074,-0.0389159,0.3865559,12.236589,6.1458893,-0.0051771807,-0.021148564,-0.012647995
0.8091577,12.681708,12.591956,-0.084742226,-0.15456022,0.16547944,0.49220636,12.347869,7.757406,-0.025068443,-0.05450148,0.031883866
-0.5315376,10.981898,4.559755,-0.12200495,0.009151517,-0.03427333,0.23627037,12.006376,6.9579935,-0.04930257,-0.038588233,0.015344568
-1.4412951,3.4213343,4.0402355,0.0308334,-0.008563558,-0.019123886,-0.18312103,9.860116,6.228554,-0.029268578,-0.031082064,0.0067274543
0.8857689,3.7612963,4.396956,0.022525633,-0.032998156,0.032799616,0.08410144,8.335411,5.770654,-0.016320026,-0.031561088,0.013245495
0.41652548,16.215397,2.194385,0.0812908,-0.02542343,0.036586985,0.16720745,10.305408,4.876587,0.00808268,-0.030026674,0.019080868
-0.3783152,12.399205,11.222532,0.00981966,-0.044115886,0.011175008,0.030826777,10.828857,6.4630733,0.008516925,-0.033548977,0.017104402
1.0964495,8.532736,6.4630632,0.1003498,0.00964021,-0.021933865,0.29723245,10.2548275,6.463071,0.031475145,-0.022751682,0.0073448354
0.2656973,8.156862,4.389774,-0.0032528634,0.015993204,-0.024255147,0.28934866,9.730336,5.9447465,0.022793144,-0.01306546,-5.55E-04
1.2329131,12.849296,7.8923407,-0.081077,-0.005020546,-0.14435115,0.52523977,10.5100765,6.431645,-0.0031743925,-0.011054232,-0.03650416
-0.9433226,6.85926,1.4953085,0.06540834,-0.060487065,0.08728876,0.15809917,9.597372,5.197561,0.0139712915,-0.02341244,-0.0055559315
0.13402185,3.4548516,5.9076324,-0.009239327,-0.002088394,0.07629319,0.15207985,8.061742,5.3750787,0.008168637,-0.018081428,0.0149063505
-0.5985724,0.32337052,21.311264,-0.060674142,0.045925573,0.002745076,-0.035583198,6.127149,9.359125,-0.009042057,-0.0020796787,0.011866032
-1.9416617,0.07917243,10.092517,0.034376394,0.037739985,-0.08155426,-0.51210284,4.615155,9.542473,0.0018125558,0.007875238,-0.01148904
-1.5370592,3.3471174,2.89825,0.012996146,-0.024934735,0.020826671,-0.7683419,4.298146,7.8814173,0.0046084533,-3.27E-04,-0.003410112
0.110080875,3.780449,3.2813058,-0.028542653,0.048124693,0.08264618,-0.5487362,4.1687217,6.7313895,-0.003679323,0.011785732,0.01810396
-0.12454082,2.4086304,14.581452,-0.073990986,0.03309741,-0.0569975,-0.44268736,3.7286987,8.693905,-0.02125724,0.017113652,-6.71E-04
1.1012378,7.0100884,13.6740885,-0.009972382,0.001210276,-0.14312942,-0.05670607,4.549046,9.938951,-0.018436026,0.013137808,-0.03628591
-0.6296956,2.8275976,14.172061,0.075059995,-0.008807907,-0.0786221,-0.19995345,4.118684,10.997229,0.0049379803,0.0076513793,-0.04686996
-2.2313476,6.351711,5.5197883,-0.04381427,-0.11803052,-0.1278578,-0.70780194,4.6769404,9.627869,-0.0072500827,-0.023769094,-0.067116916
-0.9696576,6.880807,10.293621,-0.018402295,-0.14173207,-0.05956313,-0.77326584,5.227907,9.794307,-0.010038136,-0.053259835,-0.06522847
-0.07665883,4.5465603,5.1965847,0.0074983663,-0.05596666,0.16572379,-0.59911406,5.0575705,8.6448765,-0.00565401,-0.05393654,-0.007490404
-0.5459022,5.3701305,5.898056,0.025457792,0.024300963,0.19528964,-0.5858111,5.1357107,7.9581714,0.0021239407,-0.034377165,0.043204606
-0.22988115,5.9399257,9.213882,0.019837826,0.015504512,0.032799616,-0.49682862,5.3367643,8.2720995,0.006552412,-0.021906745,0.04060336
-0.17481686,5.456318,2.4577363,0.004199697,-9.89E-04,0.06603066,-0.4163257,5.3666525,6.8185086,0.0059642335,-0.016677268,0.046960182
1.9008667,5.980626,10.4276905,0.015195262,0.2646151,0.4716448,0.16297245,5.520146,7.720804,0.00827199,0.05364582,0.15313134
0.33512616,5.068474,1.2678691,0.11635443,0.27805412,0.24990095,0.20601088,5.407228,6.1075706,0.0352926,0.109747894,0.17732374
-0.4393648,6.279888,7.2471304,-0.010804306,-0.0057768538,-0.037327655,-0.1098412,1.569972,1.8117826,-0.0027010764,-0.0014442134,-0.009331914
-0.9193816,6.830531,6.9610357,0.027418371,-0.092752345,-0.045356147,-0.3122263,2.8851118,3.0990958,0.0048287855,-0.024271246,-0.018337972
1.2604454,7.2040105,6.2775207,0.014095703,0.0153997885,0.1757187,0.08094162,3.9648366,3.893702,0.0071455147,-0.014353488,0.030176193
0.5338363,8.008428,1.6581072,0.03242164,0.23048235,0.60501117,0.19416529,4.975734,3.3348033,0.013464546,0.046855472,0.17388493
2.3593364,8.909806,7.698418,0.0033328491,0.20849124,0.4309437,0.7354581,5.9592524,4.425707,0.010931622,0.08726441,0.23814961
2.6047316,8.505203,7.80735,0.063895725,0.2538697,0.13115467,1.2027764,6.5957403,5.2711177,0.024172649,0.12891573,0.21140088
0.57573307,9.649582,4.2138076,0.0031001396,-0.045861218,-0.6814699,1.0460156,7.3592005,5.00679,0.018904522,0.08522149,-0.011816815
0.022696376,11.484659,-0.5887545,0.097580545,-0.31120923,-0.44352356,0.7901858,8.390565,3.607904,0.038573526,-0.013886191,-0.119743496
0.4141314,12.746348,5.4431767,0.059125155,-0.07151753,0.22592595,0.69617224,9.479511,4.066722,0.04371143,-0.028294025,-0.033326134
0.5206688,8.752993,4.345483,-0.06886554,-0.16425262,-0.017198203,0.65229636,9.297882,4.136412,0.015567189,-0.062283672,-0.029294152
0.90611863,10.442028,2.5941997,0.052841973,-0.0012390078,0.38160917,0.71575195,9.583919,3.750859,0.024885885,-0.047022507,0.073431686
0.7038173,8.671593,7.0256767,0.13097449,0.104411505,0.34891337,0.7127683,9.355837,4.5695634,0.051408038,-0.0091640055,0.14230211
1.0689174,9.8387165,2.0639067,-0.062291477,0.23484567,0.15297127,0.8018056,9.476557,3.943149,0.02298316,0.051838413,0.1449694
-1.5969114,12.182539,20.940178,-0.049085163,0.16858138,-0.26968896,0.20212638,10.153052,8.192406,0.00496608,0.081024155,0.04130481
-2.3450675,6.8197575,-2.4776986,0.12637845,-0.018401396,-0.46365303,-0.43467212,9.319729,5.5248795,0.03531917,0.056167766,-0.08493465
-2.023061,2.4301775,-0.17936367,-0.027152227,-0.1528498,-0.05704986,-0.83176935,7.597341,4.098819,0.019701323,0.0039133765,-0.07796346
-0.32923633,7.4733467,4.474764,0.122829616,-0.23441479,0.013694107,-0.7061361,7.5663424,4.1928053,0.045483395,-0.055668663,-0.055049066
1.1012378,11.910809,8.2335,-0.013131419,-0.014096246,0.12696587,-0.25429264,8.652459,5.202979,0.030829692,-0.045275558,-0.009545334
-1.6184585,-1.0412658,-1.2902256,-0.011793335,0.031340446,-0.013358486,-0.5953341,6.2290277,3.579678,0.020173935,-0.026121557,-0.0104986215
0.48116618,8.419016,22.604076,0.052609272,-0.015434332,0.020791762,-0.32620904,6.7765245,8.335777,0.028282769,-0.02344975,-0.002676026
0.10648972,13.973324,10.47677,-0.061069764,0.013887166,-0.062751256,-0.21803436,8.575725,8.871025,0.0059446357,-0.014115522,-0.017694835
0.11127782,18.380861,9.531101,0.107936144,0.0042878687,-0.059667856,-0.1357063,11.027009,9.036044,0.03144251,-0.009514675,-0.02818809
1.8134822,13.613012,6.266747,0.09583522,0.030642334,0.038303215,0.3515908,11.67351,8.3437195,0.047540687,5.25E-04,-0.011565264
-0.36395067,10.448014,4.8650026,-0.085446164,0.048153777,-0.110864125,0.17270544,11.367136,7.47404,0.014293976,0.012431878,-0.03638998
0.50510716,13.968536,1.4079238,0.076636605,-0.033062145,-0.06042416,0.25580588,12.017487,5.957511,0.029879633,0.0010583717,-0.042398527
-1.1791413,-5.4799247,13.348493,-0.009233514,-0.025731761,0.0070036678,-0.1029309,7.6431336,7.8052564,0.020101346,-0.0056391614,-0.03004798
0.91928625,4.4675555,-0.6881099,-0.103423044,-0.04685023,0.03533616,0.15262339,6.8492393,5.681915,-0.010779751,-0.01594193,-0.013701946
-0.40704444,3.853469,0.5819597,0.04504618,-0.054413315,-0.008180677,0.012706429,6.100297,4.406926,0.003176732,-0.025559776,-0.012321629
-0.14010245,0.07797539,9.112133,0.032479804,-0.041090652,0.03196186,-0.02549579,4.5947165,5.583228,0.0105025,-0.029442495,-0.0012507569
-0.2801572,8.266991,1.824497,-0.013771361,0.013014502,0.022653446,-0.08916114,5.512785,4.643545,0.004434035,-0.018828247,0.0047252937
-1.1911118,7.65051,9.05228,-0.09492912,0.005975019,0.006363719,-0.36464882,6.0472164,5.745729,-0.020406753,-0.01262743,0.0051349
-0.15566415,8.390286,2.9940143,-0.016389372,-0.007114938,-0.0020720316,-0.31240267,6.632984,5.0578003,-0.019402407,-0.011249308,0.0033331672
-1.751331,-10.317202,13.834494,-0.07468331,0.043383215,-0.06973257,-0.67213476,2.3954377,7.2519736,-0.03322263,0.002408823,-0.014933267
-0.7470065,2.7689424,7.7594676,0.03899569,-0.018866815,-0.043261766,-0.6908527,2.4888139,7.378847,-0.01516805,-0.0029100864,-0.022015393
-0.15326995,6.9322805,-0.49418762,0.03183987,-0.048246495,0.04737892,-0.55645704,3.5996804,5.4105883,-0.0034160707,-0.0142441895,-0.0046668146
-0.107782125,6.958616,7.2507215,0.044638943,-0.008743917,0.015904844,-0.4442883,4.439414,5.8706217,0.008597683,-0.0128691215,4.76E-04
0.5565803,11.991012,2.767772,0.07524035,0.032620355,-0.01126409,-0.19407117,6.3273134,5.094909,0.025258351,-0.0014967527,-0.0024589477
-0.46569982,4.047391,14.989646,-0.16340414,0.03867083,-0.04611247,-0.26197833,5.757333,7.5685935,-0.02190727,0.0085451435,-0.013372328
0.36146122,7.9102693,18.045713,0.12090975,-0.035331074,-0.06484566,-0.10611844,6.295567,10.187874,0.013796985,-0.0024239104,-0.026240662
-0.09581162,1.1014526,6.7599316,-0.18586068,-0.011129194,0.075885944,-0.10354173,4.9970384,9.330889,-0.03611743,-0.0046002315,-7.09E-04
-0.52196115,4.474737,5.6634345,0.09497418,-0.014427861,-0.05589794,-0.20814659,4.866463,8.414025,-0.0033445284,-0.0070571387,-0.014506243
-0.588996,6.866442,6.9323063,-0.03733911,-0.0268895,-0.045879763,-0.30335894,5.366458,8.043595,-0.011843174,-0.012015229,-0.022349622
-0.05271785,2.7246513,4.351468,-0.007895425,0.009518032,-0.022422556,-0.24069867,4.706006,7.1205635,-0.010856236,-0.0066319136,-0.022367856
-1.3431371,1.474932,1.847241,-0.0142484205,0.02613356,-0.079110794,-0.5163083,3.8982375,5.8022327,-0.011704283,0.001559455,-0.03655359
-2.9759123,4.505861,0.34853518,0.047571093,-0.053523205,-0.104156256,-1.1312094,4.0501432,4.4388084,0.0031145606,-0.01221121,-0.053454258
-1.364684,-2.3699903,-2.998415,0.009208774,-0.14466421,-0.025721222,-1.189578,2.4451098,2.5795026,0.004638114,-0.045324463,-0.046521
-0.4238031,4.817094,15.658797,-0.03489565,-0.050224535,0.1779411,-0.9981343,3.038106,5.849326,-0.005245327,-0.04654948,0.009594522
1.2161545,4.723724,15.067454,-0.0034971978,-8.67E-04,0.14874174,-0.44456214,3.4595103,8.153858,-0.0048082946,-0.035128776,0.044381328
0.69663507,5.7076983,11.82345,-0.051633336,0.050079457,0.1364023,-0.15926284,4.0215573,9.071257,-0.016514555,-0.013826717,0.06738657
-0.014412254,8.678776,8.907438,-0.005451968,0.10212513,0.15069652,-0.12305019,5.185862,9.030302,-0.013748908,0.015161246,0.088214055
0.6655118,8.750598,13.642965,-0.048579007,0.080134004,0.13860139,0.07409031,6.077046,10.183468,-0.022456434,0.031404436,0.100810885
-0.012018174,4.498678,16.403362,0.061376646,0.14219786,0.13909008,0.05256319,5.682454,11.738441,-0.0014981627,0.059102792,0.11038068
-0.84995276,4.694995,9.991965,-8.09E-04,-0.039717663,-0.22962786,-0.1730658,5.4355893,11.301823,-0.0013259707,0.034397677,0.02537854
-0.1628464,6.038084,4.928446,-0.009483673,-0.049369324,-0.07581213,-0.17051095,5.586213,9.708479,-0.0033653963,0.013455927,8.09E-05
0.646359,6.375652,11.169861,0.016294817,-0.038251586,-0.081798606,0.033706546,5.7835727,10.073824,0.0015496567,5.29E-04,-0.020388998
-0.023988679,6.014143,9.304859,0.012507455,-0.1555376,-0.30842942,0.01928274,5.841215,9.881582,0.0042891065,-0.038487613,-0.092399105
-0.3376156,4.474737,10.358262,0.012629628,-0.0268895,-0.008494838,-0.06994185,5.4995956,10.000752,0.006374237,-0.035588086,-0.07142304
0.4356783,5.868103,8.126962,-0.031352628,-0.01149571,-0.014847831,0.056463182,5.5917225,9.532305,-0.003057479,-0.029564992,-0.057279237
-0.7901003,5.870497,7.1908693,0.02594648,0.030653957,-0.002630536,-0.15517768,5.661416,8.946946,0.004193511,-0.014510254,-0.043617062
-0.13890539,6.07639,7.2411456,0.0060322904,0.003165042,0.0010346519,-0.1511096,5.7651596,8.520496,0.0046532056,-0.0100914305,-0.032454133
0.66072357,7.4458146,7.2411456,0.024358228,-0.06085358,0.07055107,0.05184868,6.185323,8.200659,0.009579461,-0.022781968,-0.006702833
-0.5267494,6.9382653,6.381664,-0.003619372,-0.0255456,-0.010571778,-0.092800826,6.373559,7.74591,0.0062797526,-0.023472875,-0.007670069
-0.53871983,7.050788,6.884424,-0.0012980881,-0.015527419,-0.076545164,-0.22177424,3.0932488,2.9674952,-3.25E-04,-0.0038818547,-0.019136291
-0.4525323,6.9957232,6.9754004,-6.87E-04,-0.021513892,-0.09242764,-0.27946374,4.0688677,3.9694715,-4.15E-04,-0.008289864,-0.037459128
-0.77812976,7.994063,6.7623253,-0.0020311256,0.0062193656,-0.034028985,-0.40413025,5.0501666,4.667685,-8.19E-04,-0.0046625566,-0.03660159
-0.761371,5.4443474,7.526043,0.0013897172,-0.003920989,-0.020956479,-0.49344045,5.1487117,5.3822746,-2.67E-04,-0.0044771647,-0.032690313
0.9097099,7.0579705,8.691969,0.008353574,-0.022002585,0.0036002845,-0.14265287,5.626026,6.209698,0.0018881771,-0.00885852,-0.023617662
-2.7628376,8.262202,4.49272,0.01226311,8.44E-04,-0.01069395,-0.7976991,6.2850704,5.7804537,0.0044819103,-0.0064329514,-0.020386735
-1.194703,7.912663,4.0426292,0.017760891,-0.120840505,-0.30012167,-0.89695007,6.6919684,5.345998,0.0078016557,-0.03503484,-0.09032047
1.6183631,9.339546,9.371893,-0.0081397705,-0.21185933,-0.40250263,-0.26812178,7.353863,6.3524714,0.0038162991,-0.07924096,-0.16836601
-0.6129369,5.820221,6.934701,0.016539162,0.031631343,0.2156925,-0.35432556,6.9704523,6.4980288,0.006997015,-0.05152289,-0.07235138
-1.4700243,5.762763,4.660307,0.006765327,-0.05401189,0.030356158,-0.63325024,6.66853,6.038598,0.0069390927,-0.05214514,-0.046674497
-1.6926756,8.40106,5.443177,-0.023655731,-0.036052477,-0.058830094,-0.8981066,7.1016626,5.889743,-7.10E-04,-0.048121974,-0.049713396
-0.83319396,9.555016,10.255316,-0.0617737,-0.074903466,-0.15400282,-0.88187844,7.715001,6.9811363,-0.015975635,-0.05481735,-0.07578575
-0.8020707,7.5032725,8.905044,0.0063988124,-0.047414556,-0.08509727,-0.8619265,7.662069,7.4621134,-0.010382024,-0.05296665,-0.07811363
-0.3040982,9.461645,6.2212596,-0.009728018,-0.08712077,-0.108554475,-0.72246945,8.111963,7.1519,-0.0102185225,-0.06150518,-0.08572384
0.16993333,9.50474,6.604315,0.0029779668,0.059242427,0.23572887,-0.49936876,8.460157,7.0150037,-0.0069194003,-0.031318277,-0.005360663
0.80197537,7.532002,7.6409597,-0.034895647,0.022468366,0.054057706,-0.17403272,8.228119,7.1714926,-0.013913462,-0.017871616,0.009493929
-0.29212773,8.587799,2.551106,-0.018402297,-0.0042875092,-0.005929207,-0.20355648,8.318039,6.016396,-0.01503567,-0.01447559,0.0056381454
-0.26818675,9.811184,6.407999,-0.0017867777,0.0859983,0.10610338,-0.21971405,8.691325,6.114297,-0.011723448,0.010642882,0.030754454
2.851324,15.997535,0.9398775,-0.0042302515,0.028577022,-0.110875756,0.5480455,10.517878,4.820692,-0.009850148,0.015126417,-0.004653096
0.29921466,9.109714,9.302464,0.09363028,0.08098921,-0.049422774,0.48583782,10.165836,5.941135,0.016019959,0.031592116,-0.015845515
0.68227047,6.9071417,13.056411,0.120263964,-0.0092966,-0.0021418463,0.53494596,9.351163,7.719954,0.04208096,0.021369938,-0.012419598
-0.8260117,21.178364,8.859556,-0.042226028,-0.106912784,0.03707567,0.19470656,12.307963,8.004854,0.021004215,-0.010700744,-4.58E-05
-1.4365069,7.486514,7.487737,0.020448703,-0.14270945,0.18136193,-0.2130968,11.102601,7.875575,0.020865336,-0.04370292,0.045306146
-0.06229426,11.250037,0.92072475,-0.1597564,0.10713421,0.13029364,-0.17539616,11.13946,6.1368628,-0.0242901,-0.005993638,0.06655302
-0.04792966,5.674181,1.0284593,0.014828723,0.08098921,-0.046979316,-0.14352953,9.77314,4.859762,-0.014510394,0.015752073,0.038169935
-1.8435038,1.1636992,-1.9186764,-0.098059066,0.055210713,-0.08705205,-0.5685231,7.62078,3.1651525,-0.035397563,0.025616733,0.0068644397
-0.8260117,4.800335,3.7098496,0.07310523,-0.0011110101,-0.069947824,-0.63289523,6.9156685,3.3013268,-0.008271866,0.018934797,-0.012338627
0.41173732,1.8053175,1.4498206,-0.14094177,-0.03189859,0.077270575,-0.3717371,5.6380806,2.8384502,-0.04143934,0.00622645,0.010063674
-1.12288,3.60568,16.827118,0.106214084,0.0029206993,0.03231092,-0.5595228,5.1299806,6.335617,-0.004525982,0.0054000122,0.015625486
-2.7843845,20.584627,7.0927114,-0.046502095,0.10359121,-0.006417898,-1.1157382,8.993643,6.524891,-0.01502001,0.029947814,0.01011464
-1.8387154,6.0739956,11.064521,0.140056,0.018314488,-0.092549816,-1.2964824,8.263731,7.6597986,0.023748994,0.027039483,-0.015551474
0.19148022,3.6008916,-2.5674775,-0.040393442,-0.04326067,0.04758254,-0.92449176,7.098021,5.1029797,0.007713385,0.009464445,2.32E-04
0.014316931,7.9581513,11.483488,-0.078511395,-0.047292385,0.0590668,-0.6897896,7.3130536,6.698107,-0.01384281,-0.0047247633,0.014940722
-2.0278492,1.3408625,11.428424,-0.020845752,0.006219374,-0.0040966123,-1.0243045,5.820006,7.880686,-0.0155935455,-0.001988729,0.010181388
0.110080875,4.7787886,3.6380267,0.0076205344,0.034685656,-0.0596853,-0.7407082,5.5597014,6.820021,-0.009790026,0.007179867,-0.007285284
0.059804797,11.779134,-2.2394855,0.04720456,-0.02175824,-0.0027527092,-0.5405799,7.1145597,4.5551443,0.004458621,-5.47E-05,-0.00615214
-0.7039127,7.268651,2.3930955,-0.067271486,0.040794306,0.045749944,-0.5814131,7.1530824,4.014632,-0.013473906,0.010157581,0.0068233814
-0.27776313,3.9097304,8.524382,-1.99E-04,0.061685883,-0.054920558,-0.5055006,6.342244,5.14207,-0.010155063,0.023039658,-0.008612603
0.598477,-0.7827031,10.59049,-0.014737116,0.018192317,-0.07984384,-0.2295062,4.5610075,6.504175,-0.011300577,0.021827823,-0.026420413
0.29203236,5.25282,20.877932,0.0035888231,-0.04069504,-0.06322832,-0.099121556,4.7339606,10.097614,-0.0075782267,0.006197106,-0.035622388
-0.21791066,2.468483,17.588442,-0.029520039,-0.08822031,0.03756436,-0.12881884,4.167591,11.970322,-0.013063679,-0.01740725,-0.017325701
0.95759183,9.265329,9.637638,0.021426082,-0.04020635,0.09376392,0.14278382,5.4420257,11.387151,-0.004441239,-0.023107026,0.010446703
-0.28255135,5.276761,8.055139,0.01702786,-0.005509236,0.047460377,0.03645003,5.4007096,10.554148,9.26E-04,-0.018707577,0.019700121
-1.1970971,6.617456,2.9389498,-0.06922625,0.0034093903,0.116365924,-0.27193674,5.704896,8.650349,-0.016612034,-0.0131783355,0.04386657
0.8737984,5.568841,4.181487,-0.10294598,-0.002577086,0.03279962,0.014497042,5.670882,7.5331335,-0.03819552,-0.010528023,0.04109983
0.5601714,7.943787,17.222143,0.14274381,0.07793489,0.08521181,0.15091564,6.2391086,9.955386,0.0070393123,0.0115877045,0.052127827
-2.7580495,-4.053042,17.281996,-0.08009963,0.06193024,-0.016313907,-0.57632565,3.666071,11.787039,-0.014745422,0.024173338,0.035017394
1.4483821,13.857211,1.3803917,-0.0065515335,0.046414264,0.049537312,-0.07014871,6.2138557,9.185377,-0.01269695,0.029733568,0.038647372
-0.82122344,4.9990454,-0.39363545,-0.022556191,0.12130627,-0.099147156,-0.2579174,5.9101534,6.7906237,-0.01516176,0.052626744,0.004198741
-1.3215902,7.6971946,16.053823,0.05086974,-0.021269545,-0.13005692,-0.5238356,6.3569136,9.106423,0.001346115,0.03415267,-0.029365174
0.4787721,6.8544717,18.500591,-0.02390008,-0.027011678,-0.06726003,-0.27318367,6.481303,11.454966,-0.004965434,0.018861584,-0.038838886
-1.6519759,-0.29430696,9.534692,0.08324556,-0.006364447,-0.03415116,-0.6178817,4.7874007,10.974897,0.017087314,0.012555077,-0.037666954
0.28724417,3.9624004,9.869865,-0.0050854525,0.05081249,-0.026209917,-0.39160025,4.5811505,10.698639,0.011544122,0.022119429,-0.034802694
-1.1492152,5.1235385,8.972079,0.021181738,-0.029943824,-0.23512565,-0.581004,4.7167473,10.266999,0.0139535265,0.009103616,-0.08488344
-0.3112805,5.7412157,9.398228,0.025457788,-0.10190369,-0.020834308,-0.51357317,4.972864,10.049807,0.016829591,-0.01864821,-0.068871155
0.6343885,4.450797,8.284972,-0.004841105,-0.04717021,-0.035983752,-0.22658277,4.842347,9.608598,0.011411917,-0.02577871,-0.060649306
-0.3040982,6.904748,6.9311094,-0.010280708,-0.008394846,0.002407644,-0.07602455,1.726187,1.7327774,-0.002570177,-0.0020987114,6.02E-04
-0.2286841,6.961009,6.8832273,-2.74E-04,-0.0013553565,5.46E-04,-0.11418943,3.0348926,3.0203898,-0.001996173,-0.0019128728,5.88E-04
0.008331671,6.9227037,7.0101147,-0.0013795355,0.0081857685,0.003454838,-0.083559155,4.0068455,4.017821,-0.0018420137,6.12E-04,0.0013046517
-0.48964086,6.9179153,6.843725,0.001471167,-0.036727335,-0.12558305,-0.18507957,4.734613,4.724297,-0.0010137185,-0.008722993,-0.030417275
-0.6368779,7.153734,6.7946463,0.005369065,-0.017179662,-0.08532415,-0.29802915,5.339393,5.241884,5.82E-04,-0.01083716,-0.044143993
-1.0833774,5.9913993,6.6940937,-4.49E-04,-0.0018207766,-0.09777417,-0.4943662,5.5023947,5.6049366,3.24E-04,-0.008583064,-0.057551537
-1.0462688,7.5080614,4.9009137,-0.0090589775,-0.0014135321,-0.117380016,-0.63234186,6.0038114,5.4289308,-0.0020215127,-0.0067906813,-0.072508655
-4.474618,7.1393695,3.3914347,0.061743148,-0.17524818,-0.45027223,-1.5929109,6.2877007,4.9195566,0.013919652,-0.048905056,-0.16694954
0.74691117,7.44342,8.567476,0.06076576,-0.2260314,-0.36035293,-1.0079553,6.5766306,5.8315363,0.025631178,-0.09318664,-0.21530038
-1.4317188,8.559071,2.5630765,0.030466877,-0.07624739,0.13957877,-1.1138961,7.072241,5.0144215,0.026840102,-0.088951826,-0.1265806
-0.86431736,7.838446,4.222187,4.12E-04,-0.069650024,0.27677897,-1.0515014,7.263792,4.816363,0.02023316,-0.084126376,-0.025740705
0.0071346313,6.7180085,7.9426165,0.068340495,0.026500065,0.29082885,-0.78684235,7.127346,5.597926,0.032259993,-0.056469765,0.053401686
-1.2354027,7.2111926,9.867472,0.04427243,0.18190405,0.5996821,-0.8989824,7.148308,6.665313,0.035263103,0.0031236894,0.18997177
-0.8667113,3.4141521,-2.8643453,0.026923861,0.23566015,0.2580865,-0.8909146,6.214769,4.282898,0.033178292,0.061257806,0.20700046
-1.2282205,3.6391973,4.0378413,0.065163985,-0.041550256,-0.35387775,-0.97524107,5.570876,4.221634,0.041174717,0.03555579,0.06678091
0.047834307,4.8601875,3.4919868,0.0068875053,0.008907168,0.0532025,-0.7194722,5.3932037,4.0392222,0.032602914,0.028893635,0.063386306
-0.62490743,8.456124,6.812602,-0.019135332,-0.003798815,-0.21716623,-0.69583106,6.1589336,4.7325673,0.019668352,0.020720523,-0.006751828
-0.05990015,5.846556,7.6457477,0.050991934,-0.08760945,-0.1631658,-0.5368483,6.080839,5.460862,0.027499247,-0.006361969,-0.04585532
-0.8260117,11.1016035,4.6722775,0.05954404,-0.059265323,-0.12859084,-0.60913914,7.33603,5.2637157,0.035510447,-0.019587807,-0.0665392
1.8194673,9.842307,11.08128,0.010797039,-0.11094449,0.019482765,-0.0019875169,7.9625993,6.7181067,0.029332094,-0.042426977,-0.04503371
-1.6184584,5.6598163,1.4809439,-0.08584177,0.01220584,0.026324451,-0.40610522,7.386904,5.4088163,5.39E-04,-0.028768774,-0.027194168
0.6559354,12.708043,-1.0232835,-0.008139773,-0.034342054,0.036709152,-0.14059508,8.717189,3.8007913,-0.0016309719,-0.030162094,-0.011218339
0.11726317,6.085966,4.272463,0.057955794,0.0692606,0.08069142,-0.07613052,8.059383,3.9187093,0.01326572,-0.005306421,0.0117591005
-1.5155121,7.512849,4.729736,-0.029520039,0.003653734,-0.036105923,-0.4359759,7.9227495,4.1214657,0.0025692806,-0.0030663821,-2.07E-04
0.67508817,16.995872,2.8599446,-0.07961096,-0.028599914,-0.047834527,-0.15820989,10.1910305,3.8060853,-0.01797578,-0.009449765,-0.012113999
-2.2912002,9.102531,8.062322,0.030955575,-0.09946022,0.10146082,-0.6914575,9.918905,4.8701444,-0.005742941,-0.03195238,0.016279705
-0.84755856,7.7785935,8.725487,-0.026587885,0.0069523985,0.035120897,-0.73048276,9.383827,5.83398,-0.010954177,-0.022226186,0.020990003
1.4795053,8.022793,3.5805683,0.10584756,0.05411116,0.047704715,-0.17798573,9.043569,5.270627,0.018246258,-0.0031418502,0.027668681
0.83549285,12.411176,-2.5770535,0.03791943,0.014038437,-0.13726512,0.0753839,9.88547,3.3087068,0.02316455,0.0011532214,-0.013564769
2.0636656,8.702717,11.754022,-0.06971494,-0.04802542,0.05393554,0.57245433,9.589782,5.4200354,-5.53E-05,-0.01114144,0.0033103079
-0.83558816,13.301781,4.102482,-0.11797327,-0.03189859,0.013740641,0.22044373,10.517781,5.0906467,-0.02953481,-0.016330728,0.005917891
-0.9121992,6.3876224,18.447922,0.001389707,0.014771477,0.10818033,-0.06271702,9.485242,8.429966,-0.02180368,-0.008555177,0.0314835
0.93365085,17.129944,14.061933,0.2930165,0.02943223,-0.07691168,0.18637495,11.396418,9.837957,0.05690136,9.42E-04,0.004384706
0.38061404,13.641743,6.3481464,0.07530434,0.037251297,-0.12309306,0.23493472,11.957748,8.965505,0.061502106,0.010019081,-0.027484735
0.574536,15.097354,-4.2984104,-0.19408701,0.043237768,-0.027431644,0.31983504,12.74265,5.6495256,-0.0023951754,0.018323753,-0.027471462
1.1946076,20.982048,17.042585,-0.020723587,0.0014546253,-0.040137634,0.5385282,14.8025,8.49779,-0.0069772783,0.014106471,-0.030638006
-1.1204859,-0.7204565,-5.983856,-0.011560604,-0.050591055,0.02107102,0.12377468,10.921761,4.8773785,-0.00812311,-0.0020679105,-0.017710749
-0.49802017,13.883547,10.782017,-0.21925464,-0.04277198,0.078247964,-0.031674027,11.662207,6.353538,-0.060905993,-0.012243928,0.0062789284
-0.51956713,3.165166,5.294743,0.07249436,0.023079231,0.033166137,-0.1536473,9.537947,6.0888395,-0.027555905,-0.003413139,0.01300073
-1.5538177,-2.1497335,5.488665,4.58E-05,-0.014061345,0.016917132,-0.5036899,6.616027,5.938796,-0.020655476,-0.0060751904,0.013979831
-0.90741116,3.3566937,2.3212724,-0.02585485,0.020513598,-0.016191732,-0.6046202,5.8011937,5.0344152,-0.021955319,5.72E-04,0.0064369403
1.3119184,18.717232,4.6722775,0.017027844,0.021368809,-0.013992619,-0.12548557,9.030203,4.943881,-0.012209528,0.005771207,0.0013295505
0.5960829,3.8187547,1.8783642,-0.09341653,0.014771472,0.007143297,0.054906547,7.7273407,4.1775017,-0.03251128,0.008021273,0.0027829872
-1.0079633,-1.5200855,4.985904,0.02667952,0.007807616,-0.06994783,-0.2108109,5.4154844,4.3796024,-0.01771358,0.007967859,-0.015399717
-1.0342984,4.0126762,5.5772467,-0.040882133,0.03590739,0.013984981,-0.41668278,5.064782,4.6790133,-0.023505718,0.014952742,-0.008053542
1.3933177,14.592199,3.2645473,-0.0075289067,-0.035075095,-0.0479567,0.035817325,7.446636,4.3253965,-0.019511515,0.0024457825,-0.018029332
-2.2313476,5.954291,13.40595,0.10914624,-0.045826312,0.03438786,-0.5309739,7.0735497,6.595535,0.012652924,-0.009622241,-0.004925034
0.92168033,9.966801,14.174455,-0.005085452,0.048613373,-0.011549162,-0.16781035,7.7968626,8.490265,0.00821833,0.0049366625,-0.006581066
-0.39746803,3.799602,0.12348987,0.018982615,-0.023346487,0.03463221,-0.22522476,6.7975473,6.398571,0.010909402,-0.0021341247,0.0037222523
-0.10059981,14.321667,9.156424,-0.05774203,0.0010881033,0.030967023,-0.19406852,8.678577,7.088034,-0.0062534558,-0.0013285677,0.010533445
-0.49323195,4.091682,10.5330305,0.07701475,0.06718366,0.03560959,-0.2688594,7.5318537,7.949283,0.014563597,0.015799489,0.016802482
-0.12214671,11.93475,6.554039,0.047326755,0.024300963,-0.08802943,-0.23218122,8.632578,7.600472,0.022754386,0.017924856,-0.009405496
-2.0613666,-0.26797187,10.401356,-0.010949761,0.004508947,0.027179662,-0.68947756,6.40744,8.300693,0.014328349,0.014570879,-2.59E-04
1.1371492,7.220769,15.924542,0.0037110033,0.12692624,0.0059215715,-0.23282087,6.610772,10.2066555,0.011674013,0.042659722,0.0012859886
0.5601714,8.501613,10.011118,-0.04124864,-0.16335668,-0.057730544,-0.034572795,7.0834823,10.157771,-0.0015566498,-0.008844376,-0.013468144
0.53623044,15.370281,2.9581027,0.08067995,-0.10043762,0.18966968,0.10812801,9.155182,8.357854,0.0190025,-0.031742685,0.037316315
0.21781531,2.8275976,6.57798,0.093385935,-1.15E-05,0.19638918,0.13554984,7.573286,7.9128857,0.03759836,-0.023809876,0.077084534
1.955931,12.004178,14.411471,0.08654425,0.112998515,-0.004829645,0.59064513,8.681009,9.537532,0.049834833,0.010392223,0.056605987
1.1012378,9.162383,17.957132,-0.16317724,0.01660407,-0.17965913,0.7182933,8.8013525,11.642432,-0.0034181848,0.011945184,-0.0024602935
0.12923366,8.911003,0.7411673,-0.0074067446,0.0029206974,0.10439297,0.5710284,8.828765,8.917116,-0.004415325,0.009689063,0.024253022
0.33512616,11.209338,10.248133,0.055756673,-0.019681301,-0.054431863,0.51205283,9.423908,9.24987,0.010627675,0.0023464719,0.0045818016
0.8091577,8.305296,7.628989,-0.05652026,-0.028966442,0.06163243,0.58632904,9.144255,8.84465,-0.0061593084,-0.0054817563,0.01884446
-0.69194216,0.12944853,3.4249518,-0.00740674,0.031875685,0.054302063,0.26676124,6.8905535,7.4897256,-0.0064711664,0.0038576042,0.02770886
-1.5801529,3.8259368,9.81959,-0.020845763,-0.03739638,0.046360813,-0.19496727,6.124399,8.072191,-0.010064816,-0.0064558918,0.03237185
0.8570397,6.76589,7.813335,0.0067653214,0.048613377,0.10927989,0.06803447,6.284772,8.007477,-0.005857282,0.007311425,0.05159886
-0.34240377,7.8169,3.6284504,-0.06250672,0.011594974,-0.23622519,-0.03457509,6.667804,6.91272,-0.020019641,0.008382313,-0.020357147
-1.2377968,3.6008916,12.469857,0.00493273,-0.04472675,-0.107088394,-0.3353805,5.901076,8.302005,-0.0137815485,-0.004894953,-0.04203996
-0.11252748,6.71813,7.937976,0.018936822,-0.032375857,0.004276057,-0.02813187,1.6795325,1.984494,0.0047342055,-0.008093964,0.0010690142
0.94930094,8.686164,6.903681,-0.013439035,0.014660766,0.061086524,0.21622632,3.4311905,3.2142906,1.91E-04,-0.0024052816,0.016073393
0.9708488,4.9057193,6.5864487,-0.017104227,0.0030543262,-0.047036625,0.40488195,3.7998228,4.05733,-0.004132885,-0.0010403797,2.96E-04
-2.955642,0.11851298,8.061277,0.26816985,0.0421497,-0.1459968,-0.43524903,2.8794954,5.058317,0.063942805,0.009757141,-0.036277283
-2.3403323,6.6630635,8.597578,0.25717425,-0.09285152,-0.051923547,-0.9115198,3.8253875,5.9431324,0.11225067,-0.015895024,-0.04018885
-1.0809821,10.916363,10.654198,0.21624629,0.047647487,-0.43371433,-0.9538854,5.598131,7.1208987,0.13824958,-9.40E-06,-0.13857022
-0.8499416,9.821015,8.213309,0.24617869,-0.13988814,-0.42332962,-0.9278994,6.6538525,7.3940015,0.16523185,-0.034979083,-0.20976007
-1.1683705,9.546879,7.455544,0.34513888,-0.093462385,-0.5149594,-0.9880172,7.377109,7.409387,0.21020861,-0.04959991,-0.28605992
1.174356,0.079008654,10.710462,-0.02565634,0.04337143,0.52839845,-0.44742393,5.5525837,8.234655,0.15124238,-0.026357073,-0.08244532
0.1592144,4.5441947,8.310274,-0.096516706,-0.13133603,-0.35002577,-0.29576436,5.3004866,8.25356,0.08930261,-0.052601814,-0.14934044
-1.4257472,-3.3602622,9.181764,0.034208454,-0.13805555,0.007941248,-0.57826006,3.1352994,8.485611,0.07552907,-0.07396525,-0.11002001
0.22146365,4.1946416,10.660183,0.01038471,-0.036651913,-0.016493361,-0.37832913,3.400135,9.029254,0.05924298,-0.064636916,-0.08663835
0.3184288,8.050503,6.530185,-0.06169739,0.061086524,-0.06780604,-0.20413965,4.562727,8.404487,0.029007886,-0.033206057,-0.08193027
0.08619126,-6.1207767,11.841722,0.105068825,-0.073303826,-0.05131268,-0.13155693,1.891851,9.263796,0.04802312,-0.0432305,-0.07427587
-0.3866636,-1.0989386,11.461043,-0.12095132,-0.106901415,0.018936822,-0.1953336,1.1441536,9.8131075,0.005779512,-0.05914823,-0.0509727
-0.05746084,3.7840357,9.43914,0.14966199,0.09285152,0.12034045,-0.16086541,1.8041241,9.719616,0.041750133,-0.021148294,-0.008144412
-0.16639702,9.062054,5.482722,0.034208454,-0.032375857,-0.077579886,-0.16224831,3.6186066,8.660393,0.03986471,-0.023955185,-0.025503282
0.35075054,-4.39336,10.547656,-0.30604348,0.1386664,-0.15515977,-0.03399861,1.6156149,9.132209,-0.046612337,0.016700212,-0.057917405
-1.0283096,4.2820296,4.3766007,0.14294247,0.12095132,0.004886922,-0.28257635,2.2822185,7.943307,7.76E-04,0.042762987,-0.042216323
1.435324,13.849259,4.999093,0.020158553,-0.09468412,-0.054367006,0.14689872,5.173979,7.2072535,0.0056219124,0.008401211,-0.045253992
-1.2569559,1.6017209,12.331336,0.13255776,0.036651913,-0.014660766,-0.20406494,4.2809143,8.488274,0.037355877,0.015463887,-0.037605684
0.3878607,11.347319,10.303447,0.009773844,0.047647487,-0.049480084,-0.05608353,6.0475154,8.942067,0.030460369,0.023509787,-0.040574282
-0.49200845,2.2996306,11.522096,-0.021380283,0.016493361,-0.12705997,-0.16506475,5.110544,9.587074,0.017500207,0.02175568,-0.062195703
0.18914193,11.534067,9.623494,0.17898351,-0.07452556,0.004886922,-0.07651308,6.716425,9.596179,0.057871033,-0.002314629,-0.045425046
0.93373865,2.9855695,10.275913,-0.19120082,0.15882497,0.084910266,0.17604986,5.783711,9.766112,-0.0043969303,0.037970267,-0.012841217
0.50876784,-6.7971387,8.136695,0.039095376,0.054367006,-0.12583824,0.25922936,2.6384985,9.358758,0.006476146,0.04206945,-0.041090474
1.2258313,20.03827,-0.7625532,0.35002577,-0.034208454,0.048258353,0.5008798,6.9884415,6.82843,0.09236356,0.022999974,-0.018753268
-0.2777274,14.348451,7.2029557,-0.21685717,-0.026267206,-0.16310102,0.306228,8.828444,6.9220614,0.015058376,0.010683179,-0.054840207
-0.19512744,13.846866,8.938752,-0.106901415,-0.018936822,0.04642576,0.18088914,10.083049,7.4262342,-0.015431572,0.0032781786,-0.029523715
0.90021986,-8.1079645,3.930082,-0.13805555,-0.034208454,0.0030543262,0.36072183,5.5352955,6.552196,-0.046087567,-0.006093479,-0.021379206
-1.3108255,7.8206596,5.3378725,-0.05375614,-0.14477506,0.014049901,-0.057164997,6.1066365,6.2486153,-0.04800471,-0.040763877,-0.01252193
0.8499416,10.240001,-0.8319851,-0.028710667,-0.086132,0.15149458,0.16961166,7.1399775,4.478465,-0.0431812,-0.052105907,0.028482199
-3.1028855,-7.705738,8.677784,-0.004886922,0.119729586,0.16615535,-0.6485126,3.4285486,5.5282946,-0.033607632,-0.009147033,0.06290048
-4.238934,-10.03769,11.807006,-0.24617869,-0.17715092,0.09896017,-1.546118,0.06198883,7.0979724,-0.086750396,-0.051148005,0.0719154
1.0402806,26.57923,2.1918917,-0.06291912,0.05131268,0.25900686,-0.8995184,6.691299,5.8714523,-0.080792576,-0.025532834,0.11868827
-0.6476316,-7.2807674,11.88362,-0.26633725,-0.06658431,0.02565634,-0.83654666,3.1982822,7.3744946,-0.12717874,-0.035795704,0.095430285
1.6101006,9.677363,8.738836,0.19914207,0.05375614,-0.12095132,-0.22488487,4.8180523,7.71558,-0.045598537,-0.013407743,0.041334882
0.8487445,5.853823,12.896367,0.37568212,-0.002443461,0.25289822,0.043522477,5.076995,9.0107765,0.059721626,-0.010666672,0.09422572
-2.043451,-3.0131028,6.919243,-0.018936822,0.08552113,0.15760323,-0.47822094,3.0544705,8.487893,0.040057015,0.013380278,0.110070094
-0.15562311,2.054225,7.8158712,0.1459968,0.069027774,0.2724459,-0.39757147,2.804409,8.319887,0.066541955,0.027292151,0.15066405
-1.6005238,5.9029045,6.55293,0.10751228,-0.07819075,-0.14966199,-0.69830954,3.579033,7.878148,0.076784536,9.21E-04,0.075582534
-1.4425066,-0.90740246,6.861782,0.089186326,-0.004276057,-0.13439035,-0.88435876,2.4574242,7.624057,0.07988498,-3.78E-04,0.023089312
0.45489833,7.3777328,8.737639,0.122783914,-0.03176499,0.1020145,-0.54954445,3.6875014,7.9024525,0.090609714,-0.008224707,0.04282061
-2.7593174,-18.702307,23.433249,-0.24862215,-0.16310102,0.080634214,-1.1019877,-1.9099507,11.7851515,0.005801752,-0.046943784,0.05227401
-0.17477672,8.632295,9.676167,0.22540927,-0.13622294,-6.11E-04,-0.87018496,0.72561073,11.257905,0.06070363,-0.06926358,0.039052792
-0.8283938,0.90021986,9.785102,0.055588737,-0.09101892,-0.06841691,-0.85973716,0.769263,10.889704,0.059424907,-0.07470241,0.012185367
1.0773908,4.5082817,10.672154,-0.08002335,-0.09101892,0.009773844,-0.37545517,1.7040176,10.835317,0.024562843,-0.07878154,0.011582486
-1.6412252,3.4859576,5.6215854,0.0421497,0.06047566,-0.026267206,-0.6918977,2.1495028,9.531884,0.028959557,-0.04396724,0.0021200627
-1.283292,3.1651347,8.617929,0.077579886,-0.028710667,0.036651913,-0.8397463,2.4034107,9.303395,0.04111464,-0.040153097,0.010753025
2.397793,9.892841,11.480197,0.13255776,-0.013439035,0.12339478,-0.030361474,4.2757683,9.847595,0.06397542,-0.033474583,0.038913462
-0.36272156,4.0186677,8.616732,-0.12644911,0.0030543262,0.03848451,-0.113451496,4.211493,9.539879,0.01636929,-0.024342356,0.038806222
-0.7038953,6.06571,4.3754034,-0.076358154,0.069027774,-0.3005457,-0.26106244,4.6750474,8.24876,-0.0068125706,-1.00E-03,-0.04603176
0.053869538,2.6922798,6.169858,-0.06291912,-0.10934488,-0.04337143,-0.18232945,4.1793556,7.7290344,-0.020839207,-0.028086087,-0.045366675
1.839944,9.528923,9.842564,-0.15943582,-0.12095132,0.32742378,0.32323894,5.5167475,8.257417,-0.055488363,-0.051302396,0.04783094
-1.2198458,-1.2018893,15.149311,0.017715093,0.14660765,0.08857546,-0.062532246,3.8370883,9.980391,-0.037187498,-0.0018248856,0.058017068
1.9333179,9.358934,9.185355,0.02321288,-0.03176499,-0.08368854,0.43643028,5.21755,9.781631,-0.022087403,-0.009309912,0.022590667
-1.377863,1.2964603,9.636662,-0.013439035,0.03176499,-0.12522738,-0.01714307,4.2372775,9.745389,-0.019925311,9.59E-04,-0.014363844
-0.007182605,4.736928,7.6770077,0.09590584,-0.029932396,0.0012217305,-0.014652954,4.3621902,9.228293,0.009032477,-0.006763989,-0.01046745
-0.7673417,6.9527617,4.8698063,0.032375857,-0.0012217305,-0.16432275,-0.20282513,5.0098333,8.138672,0.014868322,-0.005378424,-0.048931275
-0.37110126,1.0378864,11.399991,-0.112399206,-0.02321288,-0.11056661,-0.24489416,4.0168467,8.954001,-0.016948558,-0.009837038,-0.06434011
-0.641646,1.1133038,12.460623,0.0421497,-0.12583824,-0.1386664,-0.34408212,3.2909608,9.830657,-0.0021739937,-0.038837336,-0.082921684
0.4405331,3.4261026,10.109517,0.053145275,-0.03359759,0.28038713,-0.14792831,3.3247461,9.900372,0.011655823,-0.037527397,0.0079055205
0.748188,2.123657,10.96664,-0.050701816,-0.056199603,-0.0580322,0.07610077,3.024474,10.166939,-0.003933586,-0.042195447,-0.00857891
0.35194764,7.204153,9.718064,0.0842994,-0.070249505,-0.09712757,0.14506248,4.0693936,10.05472,0.01812466,-0.04920896,-0.030716075
0.50158525,5.306748,7.9954367,-0.042760566,-0.005497787,0.15699236,0.23419318,4.378732,9.539899,0.0029033534,-0.03828117,0.016211035
-0.04309563,4.856638,7.467515,0.05009095,-0.02687807,-0.053145275,0.16487098,4.4982085,9.021803,0.014700253,-0.035430394,-0.0011280421
-0.25139117,4.7896004,8.037335,-0.004886922,-0.025045475,0.03848451,-0.06284779,1.1974001,2.0093338,-0.0012217305,-0.0062613687,0.0096211275
0.01316811,5.116409,8.639477,-0.014049901,0.023823744,-0.08124508,-0.043843817,2.1771522,3.6668696,-0.004428773,0.0012599095,-0.0130954245
-0.8331822,9.070433,8.841787,0.020158553,0.021991149,-0.118507855,-0.24117842,3.9004722,4.960599,0.0017180583,0.006442719,-0.039448533
0.62009823,4.301183,6.1566896,-0.069027774,-0.086132,-0.45937067,-0.025859267,4.00065,5.2596216,-0.015968401,-0.01670096,-0.14442907
-1.0378864,7.848193,6.223727,-0.15393804,-0.2003638,-0.6817256,-0.27886605,4.962536,5.500648,-0.05046081,-0.06261667,-0.27875322
1.4101849,9.331401,7.2867527,-0.04153884,-0.1337795,-0.21685717,0.14339668,6.0547523,5.947174,-0.04823032,-0.08040737,-0.2632792
0.36152446,7.8757267,4.97156,-0.02321288,0.03848451,0.004276057,0.19792862,6.509996,5.7032704,-0.04197596,-0.050684404,-0.19639039
0.7577648,7.6746135,6.7983356,-0.15088372,-0.27366763,-0.8167268,0.33788767,6.8011503,5.9770365,-0.0692029,-0.10643021,-0.3514745
1.5945383,1.7597382,5.16549,-0.0018325958,-0.10262536,0.3848451,0.6520504,5.540797,5.77415,-0.052360326,-0.105479,-0.1673946
-0.7445967,1.8579005,4.570531,0.26939157,0.13133603,0.4831944,0.3028886,4.6200733,5.473245,0.028077647,-0.046275243,-0.004747346
0.6452374,10.287885,10.492589,-0.010995574,0.13744467,-0.1337795,0.3884758,6.0370264,6.728081,0.018309342,-3.45E-04,-0.037005384
0.12928689,7.7608047,5.6323595,0.16310102,-0.08979719,-0.38973203,0.32367858,6.467971,6.4541507,0.054507263,-0.022708245,-0.12518704
1.2006922,4.179079,9.635465,0.1704314,0.06719518,0.2284636,0.542932,5.895748,7.2494793,0.0834883,-2.32E-04,-0.036774382
2.5582044,6.8486137,9.31105,-0.096516706,0.086132,0.032986723,1.0467501,6.1339645,7.764872,0.038487047,0.021358708,-0.019334106
-0.3890578,11.69807,6.4882865,-0.021380283,0.12522738,0.040927973,0.68779814,7.524991,7.4457254,0.023520214,0.047325876,-0.0042685866
1.388637,5.807136,5.601235,-0.04153884,0.20525073,0.18570304,0.86300784,7.095527,6.984603,0.0072554518,0.08680709,0.04322432
-1.6244658,1.7405846,12.86644,0.052534413,0.09407325,0.1459968,0.24113941,5.7567916,8.455062,0.018575191,0.08862363,0.06891744
0.581791,2.8167782,7.8517847,0.19975294,0.06047566,-0.22785273,0.3263023,5.021788,8.304243,0.063869625,0.08158664,-0.0052751005
-3.21661,-4.8626237,10.563218,-0.118507855,0.047647487,0.029932396,-0.5594258,2.5506852,8.868987,0.018275253,0.07310185,0.0035267733
1.6364368,4.167108,7.1227503,0.13194689,-0.06536258,-0.1826487,-0.010460138,2.9547908,8.432428,0.04669316,0.038485743,-0.043017097
-0.05865794,7.502231,6.6870055,0.07269296,-0.02443461,0.17287487,-0.02250959,4.091651,7.996073,0.05319311,0.022755655,0.0109558925
0.19871874,10.521319,5.5748987,0.16371189,-0.06780604,-0.11301007,0.032797493,5.699068,7.3907795,0.08082281,1.15E-04,-0.020035598
-2.6970682,-1.2689269,10.664971,-0.018936822,-0.09162979,-0.044593163,-0.64966893,3.9570694,8.209328,0.0558829,-0.022821024,-0.026174989
1.958457,7.9451585,10.593145,0.09285152,-0.03970624,0.096516706,0.0023625493,4.9540915,8.805283,0.065125056,-0.02704233,0.004497934
-1.555034,8.461109,4.4304705,0.027488936,-0.05131268,-0.0067195175,-0.3869866,5.830846,7.7115793,0.055716027,-0.03310992,0.0016935712
0.79367787,-2.0254946,7.007828,-0.0018325958,-0.039095376,0.081855945,-0.09182048,3.8667607,7.5356417,0.04132887,-0.03460628,0.021734165
-2.4289176,-2.7988217,8.135497,0.11911872,0.118507855,0.23701571,-0.6760948,2.200365,7.6856055,0.06077633,0.0036722533,0.07555455
-5.386954,12.816162,10.352529,-0.34330627,-0.021991149,0.080634214,-1.8538096,4.8543143,8.352336,-0.04024432,-0.0027435971,0.076824464
-1.5873557,12.969391,10.602722,0.087964594,0.13622294,0.20830505,-1.7871962,6.8830833,8.914932,-0.008192092,0.03199804,0.10969461
-0.40581718,9.144653,4.152743,0.070249505,-0.055588737,-0.13988814,-1.4418514,7.448476,7.724385,0.011418307,0.010101344,0.047298923
-0.30286652,3.0358477,5.8634,-0.03359759,0.05497787,0.16982053,-1.1571052,6.345319,7.2591386,1.64E-04,0.021320477,0.077929325
1.6998832,6.184223,7.821857,-0.07269296,0.017104227,-0.08857546,-0.4428581,6.305045,7.3998184,-0.018049989,0.020266414,0.03630313
-2.5965118,1.7310078,8.208521,-0.15882497,0.08368854,-0.03176499,-0.9812715,5.1615357,7.601994,-0.053243734,0.036121946,0.0192861
2.4133554,2.5558102,7.380127,0.23518312,0.25595254,-0.4636467,-0.13261479,4.510104,7.5465274,0.018862978,0.09107959,-0.101447105
-2.1751323,20.944477,7.0126166,-0.54733527,-0.4343252,-0.3744604,-0.64324415,8.618697,7.4130497,-0.12268658,-0.04027161,-0.16970043
1.9381063,5.439626,6.908469,-0.35979962,-0.37323865,-0.1160644,0.0020934343,7.8239293,7.2869043,-0.18196484,-0.12351337,-0.15629143
1.8303672,1.0941502,12.364855,-0.34513888,-0.18997909,0.07391469,0.45916188,6.1414843,8.556392,-0.22275835,-0.1401298,-0.09873989
4.119224,26.362555,-0.22146365,0.15332718,-0.051923547,-0.32620203,1.3741775,11.196752,6.361928,-0.12873697,-0.11807824,-0.15560544
-2.1140802,-5.4982843,11.305421,-0.4343252,-0.14844026,-0.24251351,0.50211304,7.0229926,7.597801,-0.20513403,-0.12566875,-0.17733246
-0.1448492,-5.069722,12.325351,0.009773844,0.04153884,0.0061086523,0.3403725,3.999814,8.779689,-0.15140706,-0.08386685,-0.13147219
1.3922282,5.380968,4.710592,0.20525073,0.059864793,-0.10567969,0.60333645,4.3451023,7.7624145,-0.062242612,-0.04793394,-0.12502407
-1.4281414,1.5382746,10.709264,0.23884831,-0.021991149,-0.029321533,0.09546697,3.6433954,8.499126,0.013030119,-0.041448243,-0.10109843
-1.328782,0.16639702,4.7979803,-0.2761111,-0.040317107,-0.032375857,-0.26059526,2.7741458,7.57384,-0.059255183,-0.04116546,-0.08391779
-0.31483752,-2.0398598,13.521255,0.3023783,-0.032986723,0.08979719,-0.27415583,1.5706444,9.060694,0.031153187,-0.039120775,-0.040489044
-0.20111294,10.0903635,9.317036,0.09285152,-0.064751714,-0.1386664,-0.2558951,3.7005742,9.124779,0.04657777,-0.04552851,-0.06503338
0.7410054,12.785037,10.530896,0.032986723,-0.009773844,0.027488936,-0.0066699684,5.97169,9.476308,0.043180007,-0.036589842,-0.041902803
-0.20231004,6.9982514,7.4387846,0.29993483,-0.035430185,-0.09468412,-0.055579986,6.2283306,8.966927,0.10736871,-0.03629993,-0.05509813
1.2593501,-7.501034,6.6510925,-0.2883284,0.0012217305,0.17348573,0.27315253,2.7959895,8.387968,0.008444428,-0.026919514,0.002047833
-1.7298107,-4.4520183,12.707226,-0.17470746,0.108123146,0.080634214,-0.2275883,0.98398757,9.467783,-0.037343543,0.006841153,0.02169443
0.7278373,12.715605,6.8366427,-0.08735373,-0.004276057,0.19486602,0.011268109,3.9168918,8.809998,-0.04984609,0.0040618507,0.064987324
0.04309563,20.2322,4.734534,0.27366763,-0.03970624,-0.12705997,0.01922499,7.995719,7.7911315,0.031032339,-0.0068801725,0.0169755
-0.16998832,-3.2070332,11.842918,0.12950343,0.037873644,-0.03604105,-0.028078336,5.195031,8.804078,0.05565011,0.0043082815,0.003721362
-1.7166426,4.368221,10.097546,-0.07147124,-0.03481932,0.025045475,-0.45021942,4.9883285,9.127445,0.023869775,-0.0054736193,0.00905239
1.0594343,9.185355,13.268666,0.065973446,-0.048258353,0.099571034,-0.072806,6.0375853,10.16275,0.034395695,-0.016169803,0.03168205
-0.08259996,9.892841,5.723339,-0.17654006,-0.093462385,0.093462385,-0.07525449,7.001399,9.052897,-0.018338244,-0.03549295,0.047127135
0.80564886,2.7389667,5.3642087,-0.05131268,0.021991149,0.10995574,0.14497134,5.935791,8.130725,-0.026581854,-0.021121925,0.062834285
0.62368953,5.094861,5.543774,-0.02076942,0.029932396,0.06414085,0.26465088,5.7255583,7.4839873,-0.025128745,-0.008358344,0.063160926
0.15203181,8.924387,4.9464207,-0.05009095,0.04642576,-0.07880162,0.23649612,6.5252657,6.8495955,-0.031369295,0.0053376816,0.02767029
-0.93254155,3.4117374,11.215638,-0.19486602,0.03604105,-0.050701816,-0.055763304,5.7468834,7.9411063,-0.072243474,0.013013524,0.008077264
0.07062895,5.8215013,6.338649,0.111177474,0.017104227,0.025045475,-0.024165243,5.7655377,7.540492,-0.026388235,0.0140362,0.012319317
-0.20709845,7.1754227,7.603985,-0.12339478,-0.064751714,-0.031154128,-0.069898546,6.118009,7.556365,-0.05063987,-0.005660779,0.0014509559
0.33518824,4.973954,12.191275,0.009162978,0.016493361,-0.0720821,0.03137315,5.8319955,8.715093,-0.03568916,-1.22E-04,-0.016932309
0.25498247,-3.4943373,10.576386,0.065973446,-0.053145275,0.0421497,0.08727548,3.5004122,9.180416,-0.010273509,-0.013378002,-0.0021618064
-0.2741361,1.1324574,8.804677,-0.049480084,0.02076942,-0.030543262,-0.0030774102,2.9084234,9.086481,-0.020075154,-0.004841147,-0.00925717
0.24061728,7.759608,8.536526,-0.11728613,-0.014049901,-0.10995574,0.057846263,4.1212196,8.948992,-0.044377897,-0.0071433354,-0.034431815
-0.24301147,-1.7753005,13.140576,-0.04886922,-0.034208454,0.1863139,-0.017368168,2.6470895,9.996888,-0.045500726,-0.013909616,0.020754613
1.6938977,4.5034933,8.790312,0.03604105,-0.005497787,0.03726278,0.4104483,3.1111903,9.695244,-0.025115281,-0.0118066585,0.024881653
