Accel x,Accel y,Accel z,Gyro x,Gyro y,Gyro z,AccelLPF x,AccelLPF y,AccelLPF z,GyroLPF x,GyroLPF y,GyroLPF z
2.4084158,7.469755,9.709461,2.49E-04,0.13384938,0.5201883,0.60210395,1.8674388,2.4273653,6.24E-05,0.033462346,0.13004707
6.442472,5.923167,6.261959,0.045860667,0.40792403,0.68520314,2.062196,2.881371,3.3860137,0.011511936,0.12707776,0.26883608
8.005818,6.495357,10.059,0.04610502,0.4179422,0.49827853,3.5481017,3.7848675,5.0542603,0.020160206,0.19979388,0.3261967
-0.5770255,9.203083,6.6833205,0.15691587,0.20707168,-0.37257025,2.51682,5.1394215,5.4615254,0.054349124,0.20161332,0.15150496
-0.8427704,7.5535483,7.9426165,0.11097884,-0.21772365,-0.96242124,1.6769223,5.7429533,6.081798,0.068506554,0.09677908,-0.12697658
-3.1339228,6.014143,6.3337817,-0.023655737,-0.26891413,-0.3888192,0.47421098,5.810751,6.144794,0.045465983,0.0053557754,-0.19243723
0.07177529,5.0972033,6.913154,-0.07790053,-0.19524382,-0.110387065,0.37360206,5.6323643,6.336884,0.014624355,-0.044794124,-0.1719247
-0.5818137,7.7570467,5.6466756,0.01934914,0.25068742,0.71098167,0.13474813,6.163535,6.164332,0.015805552,0.02907626,0.0488019
3.9645798,9.001978,5.7998977,0.0290008,0.34036234,0.5250344,1.092206,6.873146,6.073223,0.019104363,0.106897786,0.16786003
-2.9136658,8.266991,1.8783642,0.054901462,-0.18082741,-0.72161824,0.09073806,7.221607,5.0245085,0.028053638,0.034966484,-0.054509535
1.2616423,5.932744,7.133411,0.043295037,-0.28345272,-0.25772765,0.38346413,6.899391,5.551734,0.031863987,-0.04463832,-0.10531406
-0.96726364,9.9117365,7.9162817,-0.055298537,0.2282076,0.41972128,0.04578218,7.6524773,6.142871,0.010073356,0.02357316,0.02594477
0.0047405213,9.648385,6.3265996,0.005665774,-0.11790835,-0.38161102,0.035521764,8.151454,6.188803,0.008971461,-0.0117972195,-0.07594418
-0.62490743,6.950236,7.827699,-0.019868374,0.25875083,0.60750115,-0.12958553,7.8511496,6.598527,0.0017615026,0.055839792,0.094917156
-0.18199919,6.5528154,6.2188654,-0.015714496,0.43529072,0.12406281,-0.14268894,7.526566,6.5036116,-0.0026074974,0.15070252,0.10220357
-1.8937799,8.278961,11.031004,0.04854847,-0.24008128,-0.73420215,-0.5804617,7.714665,7.63546,0.010181495,0.053006575,-0.10689785
-2.8538134,6.856866,-0.47982305,0.14091122,-0.41197863,-0.45100522,-1.1487997,7.500215,5.606639,0.042863924,-0.06323972,-0.1929247
2.4610858,11.352983,12.220871,-0.057008944,0.024300955,1.4916668,-0.2463283,8.4634075,7.2601967,0.017895706,-0.041354552,0.22822319
3.334932,9.045073,5.3809304,0.19466731,0.881222,1.2192211,0.6489868,8.608824,6.79038,0.06208861,0.18928958,0.47597265
-3.8377879,5.8800735,15.505574,-0.05041162,0.11409808,-2.126363,-0.4727068,7.926636,8.969179,0.033963554,0.17049171,-0.17461127
-7.828751,3.0167317,9.3288,1.2933687,-1.1341428,-1.3534969,-2.311718,6.69916,9.059084,0.34881485,-0.1556669,-0.4693327
-0.65363663,4.82667,9.575392,0.14750853,-0.540871,1.9975849,-1.8971977,6.2310376,9.188161,0.29848826,-0.25196794,0.14739668
3.1817095,7.7570467,7.25551,0.15935935,0.25985038,1.4225168,-0.62747097,6.61254,8.704998,0.26370603,-0.124013364,0.46617672
0.8953453,5.990202,7.686448,0.52942115,0.5531876,1.1324782,-0.24676692,6.4569554,8.45036,0.3301348,0.04528688,0.63275206
4.9054604,11.142303,5.038574,0.6695535,1.045056,0.38294724,1.0412899,7.6282926,7.597414,0.41498947,0.29522914,0.5703009
4.0818906,4.237722,7.207628,0.49802274,1.0435898,-0.34630305,1.8014401,6.78065,7.4999676,0.4357478,0.4823193,0.3411499
-0.92177576,2.9473028,8.316096,-0.042959064,0.3886207,-1.5784172,1.1206362,5.8223133,7.7039995,0.3160711,0.45889464,-0.13874188
3.1266453,5.01341,22.881794,0.13431388,-0.18876867,-1.7213596,1.6221385,5.6200876,11.498448,0.2706318,0.29697883,-0.5343963
-3.9287636,7.848023,5.752016,0.8397405,-0.7363478,-0.72992605,0.23441291,6.1770716,10.06184,0.41290897,0.038647175,-0.5832787
-0.14369358,8.621317,9.558633,0.6545263,-0.8695163,0.12675062,0.13988629,6.7881327,9.936038,0.4733133,-0.1883937,-0.40577137
-0.6943363,3.9193068,7.94501,0.10413717,-0.60513395,1.1059667,-0.06866935,6.070926,9.438281,0.38101926,-0.29257876,-0.02783686
2.5017855,6.8257422,7.2938156,-0.06751582,-0.19072342,1.6595324,0.57394433,6.25963,8.902164,0.2688855,-0.26711494,0.39400548
-0.4788674,2.0973978,8.984049,0.57218176,0.71494466,0.96803355,0.3107414,5.2190723,8.922636,0.34470958,-0.021600038,0.5375125
3.2463503,6.4522634,8.445377,0.6425532,0.8680274,0.28691936,1.0446436,5.52737,8.803322,0.4191705,0.20080683,0.47486418
0.7971872,7.824082,2.871915,0.21384846,0.8462806,-0.9475161,0.9827795,6.101548,7.32047,0.36784,0.36217526,0.11926913
-2.9759123,3.7636905,4.7464943,0.049892377,-0.0865099,-1.5974764,-0.006893456,5.5170836,6.676976,0.2883531,0.25000396,-0.30991724
-1.6292318,10.531807,15.630069,0.43980056,-0.51040924,-0.97357965,-0.41247803,6.7707644,8.915249,0.32621497,0.05990067,-0.47583285
-9.952315,6.80659,-1.6397642,0.9185245,-1.0163217,-0.2750995,-2.7974372,6.779721,6.276496,0.47429234,-0.2091549,-0.42564952
-1.3335607,7.441026,6.4870043,0.4948753,-1.0568132,0.8415031,-2.431468,6.9450474,6.329123,0.47943807,-0.4210695,-0.10886139
4.645701,9.027117,10.126034,-0.007720891,-0.02869882,1.7253369,-0.6621758,7.4655647,7.278351,0.3576483,-0.32297683,0.34968817
5.6847396,7.2076015,10.6299925,0.38794497,0.45929486,1.2342601,0.92455304,7.401074,8.1162615,0.36522248,-0.1274089,0.5708312
-0.34719193,1.1684874,5.682587,0.7044892,0.97538835,0.31837013,0.6066168,5.8429275,7.507843,0.45003915,0.14829041,0.50771594
-0.106585085,4.4148855,15.213495,0.40074396,1.0640512,-0.669718,0.42831632,5.485917,9.434256,0.43771535,0.37723058,0.21335745
-1.6711285,6.8185606,9.205503,0.0332943,-0.037541818,-1.3596462,-0.09654489,5.819078,9.377068,0.33661008,0.2735375,-0.17989346
-2.8274782,12.040091,6.3972254,0.25023854,-0.46823058,-0.7433709,-0.77927816,7.374331,8.632107,0.3150172,0.08809547,-0.3207628
-0.69792753,11.192579,4.814726,0.15267473,-0.37834617,0.45392388,-0.7589405,8.328893,7.6777616,0.2744316,-0.028514937,-0.12709114
0.36984053,17.772758,3.2633505,-9.72E-04,-0.12085211,0.39504826,-0.47674525,10.689859,6.5741587,0.20558062,-0.05159923,0.003443718
1.0318089,2.321246,21.071854,-5.07E-04,-0.035738315,0.0479607,-0.09960672,8.597706,10.198583,0.15405875,-0.047634,0.014572963
-1.4999504,6.270312,11.023821,0.027534734,-0.21021292,-0.0771793,-0.44969264,8.015858,10.404892,0.12242775,-0.088278726,-0.008365102
0.428496,10.042215,3.0143642,0.04696604,-0.15284982,0.21423227,-0.23014548,8.522448,8.5572605,0.10356232,-0.1044215,0.047284238
-1.5442413,5.98302,8.118583,-0.030061092,0.102608,0.022420734,-0.55866945,7.8875904,8.447591,0.07015647,-0.052664123,0.04106836
0.0071346164,3.2357917,13.607054,-0.018600103,-0.05290071,0.05773453,-0.41721845,6.724641,9.737456,0.047967326,-0.05272327,0.045234904
2.1881585,9.300043,5.461133,-0.021799866,0.19057253,0.4749842,0.2341258,7.368491,8.668375,0.030525528,0.008100681,0.15267223
0.54820096,3.274097,4.610031,-0.06275689,0.06543252,-0.19836323,0.3126446,6.3448925,7.653789,0.007204924,0.02243364,0.06491336
-0.7936914,6.3157997,7.1741104,-0.075846836,0.15793489,-0.030229982,0.0360606,6.3376193,7.5338693,-0.013558015,0.056308955,0.041127525
-1.6100792,7.4434204,5.801095,0.0070562144,-0.012932699,-0.0057953973,-0.4025198,1.8608551,1.4502738,0.0017640536,-0.0032331748,-0.0014488493
-3.2213075,7.0459995,6.118313,0.008743364,-0.022241112,0.05226584,-1.1072167,3.1571412,2.6172836,0.0035088812,-0.007985159,0.011979824
-3.649851,6.9550242,6.0728254,0.0021692975,0.06159281,0.14808434,-1.7428753,4.106612,3.481169,0.0031739853,0.009409334,0.046005957
0.045440137,7.9102697,2.4002779,0.008045232,0.037914522,0.2177229,-1.2957964,5.0575266,3.210946,0.004391797,0.01653563,0.08893519
-2.455196,9.54903,5.890874,0.028523747,0.041114282,0.0057819383,-1.5856463,6.1804028,3.880928,0.010424784,0.022680294,0.06814688
1.1000407,3.2752943,6.9957504,-0.029246602,-0.052667987,0.03242728,-0.9142245,5.4541254,4.6596336,5.07E-04,0.0038432237,0.059216976
-0.5447052,7.280622,2.8360035,0.032305293,0.010105633,0.020093631,-0.8218447,5.9107494,4.2037263,0.008456526,0.0054088263,0.04943614
-0.23107818,6.7000527,2.9114177,0.017935429,-0.0809423,0.16641027,-0.6741531,6.108075,3.880649,0.010826252,-0.016178954,0.07867967
0.9121039,7.5703077,9.501175,-0.03977675,0.16386902,0.36159605,-0.27758884,6.4736333,5.2857804,-0.0018244982,0.02883304,0.14940876
0.059804797,10.930426,7.0699673,-0.05333213,0.06816688,-0.1656674,-0.19324043,7.5878315,5.7318273,-0.0147014065,0.0386665,0.070639715
-2.4109051,9.740558,5.458739,0.03783215,-0.059591133,-0.20476277,-0.7476566,8.126013,5.663555,-0.0015680175,0.014102094,0.001789093
0.095716275,-0.22607493,5.566473,-0.08957678,0.087772705,0.1661194,-0.5368134,6.0379906,5.6392846,-0.023570208,0.032519747,0.04287167
-0.80925304,4.3574266,15.798851,-0.08358448,-0.002460733,-0.10167207,-0.6049233,5.6178493,8.179176,-0.038573775,0.023774628,0.0067357346
-0.8786819,5.353372,11.071703,-0.03139918,0.07177387,0.05598921,-0.673363,5.55173,8.9023075,-0.036780126,0.03577444,0.019049104
0.12564251,3.3375406,8.9948225,-0.07445059,0.023428302,-0.13541506,-0.4736116,4.998183,8.925436,-0.046197742,0.032687906,-0.019566938
0.035863817,8.261005,2.6396875,-0.013887715,0.19417952,0.36520308,-0.34624273,5.8138885,7.353999,-0.038120236,0.07306081,0.07662557
-0.64645433,9.21266,4.5836954,0.011943122,0.42223567,-0.1618277,-0.42129564,6.6635814,6.661423,-0.025604397,0.16035452,0.017012253
-1.1288651,7.994063,8.001271,0.067677245,-0.22621173,-1.3903056,-0.59818804,6.9962015,6.996385,-0.0022839867,0.06371296,-0.33481723
-3.6917481,6.3146024,1.0057153,0.5115141,-0.48859265,-0.9581044,-1.3715781,6.825802,5.498718,0.12616554,-0.07436345,-0.49063903
-2.7089705,-1.4039717,2.1369267,0.5221025,-1.108533,0.85325485,-1.7059262,4.768358,4.65827,0.22514978,-0.33290583,-0.15466556
-0.44654706,6.1637745,2.4960418,-0.0137132,-0.47730625,1.8135923,-1.3910813,5.1172123,4.117713,0.16543403,-0.36900592,0.33739892
1.0126561,5.276761,12.838549,0.56463027,0.49111795,1.0892234,-0.79014695,5.1570997,6.297922,0.2652331,-0.15397495,0.52535504
1.7225065,12.368082,7.344092,0.5148303,0.7173125,0.7099635,-0.16198361,6.9598455,6.5594645,0.3276324,0.063846916,0.57150716
5.787686,13.76025,3.2130742,0.53728676,1.2320098,-0.2553191,1.3254337,8.659946,5.722867,0.38004598,0.35588762,0.3648006
0.22140646,7.093882,2.1800206,0.23470512,0.8823624,-1.3887932,1.0494269,8.268431,4.8371553,0.34371078,0.48750633,-0.07359785
-2.6215858,7.9545603,6.895198,0.2487841,-0.23714915,-1.2692384,0.1316737,8.189963,5.351666,0.3199791,0.30634245,-0.372508
-0.8930465,3.8570604,11.453563,0.510176,-0.378288,-0.7693762,-0.124506354,7.1067376,6.87714,0.36752832,0.13518484,-0.47172505
-3.8665173,6.909536,7.4542203,0.80455464,-1.0160888,-0.24397443,-1.0600091,7.057437,7.02141,0.47678488,-0.15263359,-0.41478738
-1.4544626,5.3677363,6.1829534,0.3903884,-0.8806515,0.9388923,-1.1586225,6.6350117,6.8117957,0.45518577,-0.33463806,-0.07636747
0.16035688,6.226021,13.840479,0.037308566,0.030293252,1.5773915,-0.8288777,6.532764,8.568967,0.35071647,-0.24340522,0.33707228
-1.3479252,5.113962,6.440319,0.32906923,0.3493392,1.0094036,-0.95863956,6.1780634,8.036805,0.34530467,-0.09521912,0.5051551
1.2664305,2.1105652,7.403944,0.49749333,0.8238937,0.6842491,-0.40237206,5.161189,7.8785896,0.38335183,0.1345591,0.5499286
1.3609974,5.163041,6.55763,0.51704097,1.181686,-0.03779306,0.038470328,5.161652,7.54835,0.41677412,0.39634085,0.4029982
0.013119757,0.9829447,7.241145,0.06982983,0.33875084,-1.5433128,0.032132685,4.1169753,7.4715486,0.33003804,0.38194335,-0.08357954
-5.4681687,6.759905,3.9923534,0.066397354,-0.0552278,-1.4365569,-1.3429427,4.7777076,6.60175,0.26412785,0.27265054,-0.4218239
-6.790909,4.523817,2.9245853,0.6671973,-0.559162,-0.39052382,-2.7049341,4.714235,5.682459,0.36489522,0.0646974,-0.41399887
-0.51238483,-0.27276006,25.375248,0.48440343,-0.76394725,-0.1722415,-2.156797,3.4674861,10.605656,0.3947723,-0.14246376,-0.35355952
-2.8861337,3.2298064,-1.643355,-0.009698933,-0.39998823,1.1467608,-2.339131,3.4080663,7.5434027,0.2936545,-0.20684488,0.021520555
-1.054648,5.4706826,9.456884,0.034690578,0.037623633,1.0319182,-2.0180104,3.9237204,8.021773,0.22891352,-0.14572775,0.27411997
-0.2179107,-3.2857332,4.715371,0.13388336,0.44050342,0.023758814,-1.5679855,2.121357,7.195173,0.20515597,8.30E-04,0.21152969
-0.5674491,2.7485924,4.8003616,-0.0011468185,0.20767675,-0.4198453,-1.3178514,2.2781658,6.59647,0.15358028,0.052541718,0.053685933
-1.0163426,7.558337,6.109934,0.07442587,0.0530407,-0.007773435,-1.2424742,3.5982087,6.474836,0.13379167,0.052666463,0.038321093
0.11606613,9.426931,4.781209,-0.06653843,0.08428206,0.03457984,-0.9028391,5.0553894,6.0514293,0.08370914,0.060570363,0.03738578
-1.2342055,8.968462,3.9157424,0.047838703,0.07235565,-0.029008254,-0.9856807,6.0336576,5.5175076,0.074741535,0.063516684,0.020787273
-0.2071372,6.6006975,11.777963,-0.013073228,0.05606594,-0.047450554,-0.79104483,6.1754174,7.0826216,0.052787844,0.061653998,0.003727816
-0.47407925,7.6457214,9.353937,-0.033493567,-0.019448586,-0.11604193,-0.71180344,6.5429935,7.6504507,0.031217491,0.041378353,-0.02621462
-1.5526208,4.961937,5.2612257,0.08722494,-0.07047033,-0.16351487,-0.9220078,6.1477294,7.0531445,0.045219354,0.013416182,-0.060539685
-0.5734343,8.314873,5.416842,0.010372339,-0.028291583,0.21847923,-0.83486444,6.689515,6.6440687,0.0365076,0.002989241,0.009215042
-0.35078314,6.5947123,5.7819424,-0.043500118,0.09766292,0.17246078,-0.7138441,6.6658144,6.4285374,0.01650567,0.02665766,0.050026476
0.21063301,4.3885503,7.583502,-0.103364855,-0.029222425,-0.19830504,-0.48272485,6.0964985,6.7172785,-0.013461962,0.012687638,-0.012056403
-0.9301551,6.05604,8.681196,-0.038147774,-0.05144626,-0.14239639,-0.59458244,6.086384,7.2082577,-0.019633416,-0.003345836,-0.044641398
-1.2018852,4.121608,12.37529,-0.03843866,0.13472202,-0.06408934,-0.7464081,5.59519,8.500015,-0.024334727,0.031171128,-0.049503386
-1.6807051,4.511846,8.7111225,0.026545715,0.044139523,-0.15054123,-0.9799824,5.324354,8.552792,-0.011614617,0.034413226,-0.07476285
-0.065885425,7.662481,6.41159,0.1852542,-0.08460748,0.089499496,-0.75145817,5.908886,8.017491,0.03760259,0.004658049,-0.033697262
-0.4513353,7.1585226,7.2950125,0.008568833,-0.018924989,0.016370267,-0.11283383,1.7896307,1.8237531,0.0021422082,-0.004731247,0.0040925667
-0.7529917,7.4685583,5.9914255,0.0017620544,-0.015143446,0.005141991,-0.27287328,3.2093625,2.8656712,0.0020471697,-0.0073342966,0.004354923
0.38061404,7.310548,7.468585,1.91E-04,-0.013863539,0.012821433,-0.10950145,4.2346587,4.0163994,0.001583192,-0.008966607,0.0064715506
-0.98402226,6.4774013,6.6533937,-5.07E-04,-0.004962367,0.0017676903,-0.32813165,4.7953444,4.6756477,0.0010606761,-0.007965547,0.0052955854
-0.100599825,6.3864255,7.03645,-0.0029503317,-0.0021116654,-0.0077152583,-0.2712487,5.1931148,5.265848,5.79E-05,-0.0065020765,0.0020428745
-1.4819949,6.2750998,5.4814825,0.004903645,0.014759834,-0.006609884,-0.5739353,5.463611,5.3197565,0.0012693543,-0.001186599,-1.20E-04
0.029878557,6.6844907,6.9538536,0.002867429,0.0015535215,0.031670973,-0.4229818,5.7688313,5.728281,0.001668873,-5.02E-04,0.007827507
-2.1750865,8.951702,5.9626966,0.017411824,-0.016016118,0.013286854,-0.861008,6.564549,5.786885,0.005604611,-0.004380206,0.009192344
-1.2282203,8.925367,8.259834,0.021077015,-0.037134577,0.09537544,-0.95281106,7.1547537,6.4051223,0.009472712,-0.012568798,0.030738119
-3.1925783,8.733839,5.317487,0.013339395,0.13495475,0.5403759,-1.5127529,7.5495253,6.1332135,0.010439383,0.02431209,0.15814756
4.5224047,7.217178,13.127037,-0.010280706,0.42869338,0.8008369,-0.0039634705,7.4664383,7.8816695,0.0052593607,0.12540741,0.31881988
0.6403738,7.0136795,6.123101,0.027592905,0.146183,-0.66285306,0.15712085,7.3532486,7.4420276,0.010842746,0.13060132,0.073401645
-0.31367463,7.8947077,6.0488844,-0.059324414,-0.1575622,-0.86519486,0.039421983,7.488613,7.093742,-0.0066990443,0.05856044,-0.16124748
-4.77E-05,4.1335783,15.850325,0.092344575,-0.27333564,-0.056875333,0.029554574,6.6498547,9.282887,0.018061861,-0.024413578,-0.13515444
-0.117358565,7.445814,9.419775,0.031083565,-0.092868716,0.5454373,-0.0071737114,6.8488445,9.317109,0.021317288,-0.04152736,0.034993485
0.5158806,11.408049,2.3942924,0.00752164,0.076486275,-0.114005715,0.123589866,7.9886456,7.586405,0.017868377,-0.012023952,-0.0022563152
0.71937895,5.6358757,6.9718094,-0.042452913,-0.06267453,-0.29406533,0.27253714,7.400453,7.432756,0.0027880548,-0.024686597,-0.075208575
1.8757287,-0.45830274,10.959181,0.005369048,-0.053773362,-0.0042827763,0.6733351,5.4357643,8.314363,0.003433303,-0.03195829,-0.057477124
-1.3084226,3.9109273,5.7639866,0.04079921,-0.07070304,-0.08305523,0.17789567,5.054555,7.6767683,0.01277478,-0.041644476,-0.06387165
0.24654451,4.8218822,6.2727323,-0.01604029,0.05833485,0.38149282,0.19505787,4.9963865,7.3257594,0.005571013,-0.016649645,0.047469467
-0.098205745,6.022523,13.100702,0.14755508,0.094055906,0.01369411,0.121741965,5.2529206,8.769495,0.04106703,0.011026744,0.039025627
1.1838342,12.040091,-2.1904066,-0.09818705,0.1391435,-0.03406971,0.38726503,6.949713,6.0295196,0.0062535107,0.043055933,0.020751793
-2.91606,3.823543,4.9464016,-0.13059197,-0.116256095,-0.31692913,-0.4385662,6.168171,5.75874,-0.02795786,0.0032279268,-0.063668445
-0.9121992,4.095273,7.4673877,-0.07037816,0.15205897,0.7296858,-0.5569745,5.649946,6.1859016,-0.038562935,0.040435687,0.13467011
1.4675349,14.710707,-6.4734497,0.038472086,0.7151018,0.22610049,-0.050847113,7.9151363,3.0210638,-0.019304179,0.20910221,0.1575277
0.4787721,11.5229645,15.632462,0.13778125,-0.25082088,-1.8768452,0.08155769,8.817093,6.173913,0.019967176,0.09412144,-0.35106558
-9.28556,8.032369,-2.0862632,0.81607383,-0.9683251,-1.03263,-2.2602215,8.620912,4.108869,0.21899384,-0.17149018,-0.52145666
-1.5610001,4.5429697,4.3538623,0.17262962,-0.77290654,1.5693047,-2.085416,7.601426,4.1701174,0.2074028,-0.32184428,0.0012336969
1.4411998,10.469562,16.247746,-0.008302678,-0.1816477,1.8816601,-1.203762,8.31846,7.1895247,0.15347643,-0.28679514,0.4713403
5.041924,11.568453,13.213224,0.79774785,0.7099239,0.78099823,0.35765946,9.130959,8.69545,0.3145443,-0.037615374,0.5487548
3.0296843,4.657886,9.770512,0.5936609,1.0689961,0.31935918,1.0256656,8.012691,8.964215,0.38432345,0.2390375,0.4914059
1.1060259,9.03789,11.257246,0.07832377,0.8439651,-1.2782556,1.0457557,8.2689905,9.537473,0.30782354,0.3902694,0.048990548
0.0023464262,4.5669107,13.450241,-0.019763662,0.21587978,-1.7609551,0.7849034,7.3434706,10.515665,0.22592674,0.346672,-0.40349585
-4.032907,13.431061,10.013512,0.68959576,-0.62688076,-0.8042246,-0.41954923,8.865368,10.390127,0.341844,0.10328381,-0.503678
-5.081522,6.835319,7.834882,0.5810363,-1.0022427,-0.26747826,-1.5850425,8.357856,9.751316,0.40164208,-0.1730978,-0.4446281
-1.1192888,-0.3936622,1.3899682,0.07704386,-0.58138597,1.4434084,-1.4686041,6.169976,7.6609793,0.32049254,-0.27516985,0.027381033
-1.1803384,2.5343206,15.620491,-0.015400343,-0.11736146,1.5983355,-1.3965377,5.261062,9.650857,0.2365193,-0.23571774,0.42011964
1.8853052,8.055113,15.388264,0.61408114,0.58443487,0.76930475,-0.576077,5.9595747,11.085209,0.33090976,-0.030679584,0.5074159
4.7761793,9.012752,3.7086527,0.38067272,0.99365616,0.3834709,0.7619871,6.722869,9.24107,0.3433505,0.22540435,0.47642964
1.7715855,-3.3551621,-2.004864,0.019215308,0.7668798,-1.1560246,1.0143867,4.203361,6.4295864,0.2623167,0.3607732,0.0683161
-0.36275366,5.819024,13.787808,-0.054844756,0.23880173,-1.5710636,0.6701016,4.607277,8.269142,0.18302634,0.33028033,-0.34152883
-2.284018,15.120097,4.712977,0.76970637,-0.60954386,-0.6977596,-0.06842834,7.235482,7.3801007,0.32969636,0.09532428,-0.43058652
-0.9552931,18.991356,7.5128756,0.47119704,-0.59220695,-0.17835014,-0.29014453,10.174451,7.4132943,0.36507154,-0.07655853,-0.36752743
-2.9615476,6.9430532,4.2281723,0.14767145,-0.80461335,0.6370088,-0.9579953,9.366602,6.617014,0.31072152,-0.25857222,-0.11639339
0.33512613,7.324912,6.00579,-0.086842425,-0.34826836,1.4569637,-0.63471496,8.856179,6.464208,0.21133053,-0.28099626,0.2769459
2.4934063,10.712563,4.3359065,0.24325725,0.45045185,0.8617489,0.14731538,9.320275,5.9321327,0.21931222,-0.098134235,0.42314664
5.815218,0.46103126,9.1887455,0.40097675,0.7435506,0.56097084,1.564291,7.105464,6.746286,0.26472837,0.11228697,0.45760268
1.8685464,5.1558595,7.4614024,0.1444135,0.70049924,-0.8677546,1.6403549,6.618063,6.925065,0.23464966,0.25934005,0.12626338
-1.4113688,3.2393827,-1.4709802,0.09909318,-0.003973358,-1.1584681,0.87742394,5.7733927,4.8260536,0.20076054,0.1935117,-0.1949195
-1.5191034,0.09114289,18.584385,-0.056590073,-0.18228768,0.060527053,0.27829212,4.35283,8.265636,0.13642289,0.099561855,-0.13105786
-0.4585176,1.643716,10.629992,0.046267904,0.03605283,0.16210513,0.09408969,3.6755514,8.856726,0.11388414,0.0836846,-0.057767108
-0.5267494,6.7922254,10.56176,0.046267904,0.03605283,0.16210513,-0.061120078,4.45472,9.282984,0.09698008,0.07177666,-0.002799049
-1.5633942,2.9401207,7.0232825,0.06137663,-0.2507103,0.13249274,-0.4366886,4.0760703,8.718059,0.088079214,-0.008845083,0.031023897
0.18908614,9.157596,0.41796404,0.041951142,-0.085410334,0.38893372,-0.28024492,5.3464518,6.643035,0.0765472,-0.027986396,0.120501354
-0.4525323,6.1697593,8.016833,0.022647813,0.09540561,-0.04942277,-0.32331675,5.5522785,6.9864845,0.06307235,0.002861604,0.07802032
-0.07665883,6.521692,6.5971327,0.061620988,-0.002821433,-0.22303051,-0.26165226,5.794632,6.889147,0.06270951,0.0014408448,0.002757609
0.5889006,7.093882,2.9533143,0.0321773,-0.0747813,-0.09548197,-0.049014032,6.1194444,5.9051886,0.055076458,-0.01761469,-0.021802286
-0.8691055,6.516904,6.6067095,-0.0048411,-0.023957353,0.0039668027,-0.2540369,6.218809,6.080569,0.04009707,-0.019200357,-0.015360014
0.033469707,7.7283177,6.376876,-1.99E-04,-0.051201917,-0.06273962,-0.18216026,6.596186,6.1546454,0.030023169,-0.027200747,-0.027204916
-0.83319396,6.184124,4.9882984,-1.99E-04,-0.051201917,-0.06273962,-0.34491867,6.4931707,5.8630586,0.022467744,-0.03320104,-0.036088593
-0.857135,7.4721494,10.669495,0.027656902,-0.05279017,0.05136991,-0.47297275,6.7379155,7.0646677,0.023765033,-0.03809832,-0.014223967
-0.93614024,6.612668,3.4512868,0.06858484,-0.04142808,0.115877226,-0.5887646,6.7066035,6.1613226,0.034969985,-0.03893076,0.01830133
-2.2457123,5.9973845,7.8875523,-0.03436623,-0.016423352,-0.0059699304,-0.56142807,1.4993461,1.9718881,-0.008591558,-0.004105838,-0.0014924826
-2.8609958,5.762763,6.6641674,-0.026832234,0.005241981,-0.018635191,-1.13632,2.5652003,3.144958,-0.013151727,-0.0017688833,-0.00577816
-3.5840135,6.2822824,7.1501694,-0.013759728,0.015748855,-0.007883973,-1.7482433,3.4944708,4.1462607,-0.013303727,0.0026105512,-0.0063046133
-3.1985633,4.6351423,7.9402227,-0.026832234,0.014404952,-0.016069561,-2.1108234,3.7796388,5.0947514,-0.016685855,0.005559151,-0.00874585
-3.2033517,5.116356,6.982583,0.0037110024,-1.34E-04,0.0022563813,-2.3839555,4.113818,5.5667095,-0.01158664,0.0041359565,-0.005995292
-3.3206627,5.954291,7.7247534,0.015317434,-0.010518327,0.029989641,-2.6181324,4.5739365,6.1062202,-0.0048606214,4.72E-04,0.0030009411
-2.482728,6.3277698,9.256977,0.017027855,-0.007830523,0.014718023,-2.5842812,5.012395,6.8939095,6.11E-04,-0.0016033417,0.0059302114
-3.7109008,8.061098,2.7785451,0.04048506,-0.022735622,-0.032074217,-2.865936,5.7745705,5.8650684,0.010579888,-0.0068864115,-0.0035708956
1.7356738,8.094615,6.554039,0.036209006,-0.0747813,-0.10794361,-1.7155336,6.354582,6.037311,0.016987167,-0.023860134,-0.029664073
-4.295061,7.7762,3.4991689,0.081535175,-0.16433404,-0.34850213,-2.3604155,6.709986,5.402776,0.03312417,-0.05897861,-0.109373584
-6.3132863,5.8585267,6.312235,0.11501056,-0.09493983,-0.12443697,-3.3486333,6.4971213,5.6301403,0.053595766,-0.06796891,-0.11313943
-0.6129369,7.362021,7.303392,0.14482075,-0.24044782,-0.4335346,-2.664709,6.7133465,6.0484533,0.07640201,-0.11108864,-0.19323823
2.3078635,6.0500546,12.1035595,0.18452697,-0.33513185,-0.5256529,-1.421566,6.5475235,7.56223,0.10343325,-0.16709945,-0.2763419
-0.1484818,6.95263,10.650342,0.25709772,-0.37923628,-0.6810568,-1.103295,6.6488,8.334258,0.14184937,-0.22013366,-0.37752062
-2.2241654,5.7747335,8.043168,0.32917976,-0.41515514,-0.6841112,-1.3835126,6.4302835,8.261486,0.18868196,-0.26888904,-0.45416826
-6.102606,6.6006975,5.321078,0.33541057,-0.50177574,-0.9735389,-2.5632858,6.472887,7.526384,0.22536412,-0.3271107,-0.5840109
-3.8952463,4.3909445,11.629528,0.5187921,-0.48002896,-0.9192941,-2.896276,5.952401,8.55217,0.2987211,-0.36534026,-0.6678317
-9.5620775,5.2647905,5.2899547,0.5740143,-0.5205903,-0.8534429,-4.5627265,5.7804985,7.736616,0.3675444,-0.40415278,-0.71423453
-1.3048315,6.0285077,6.0847955,0.6088336,-0.41234517,-0.110387065,-3.7482529,5.8425007,7.323661,0.4278667,-0.4062009,-0.56327266
-2.312747,4.369397,7.760665,0.37401718,-0.30886465,0.10537035,-3.3893764,5.474225,7.432912,0.41440433,-0.3818668,-0.3961119
0.33752024,8.99719,3.8008254,0.20859502,-0.21943407,0.39956278,-2.457652,6.354966,6.5248904,0.362952,-0.34125862,-0.19719324
-0.96247536,7.000512,1.7371124,0.0054214303,-0.1253609,0.31074306,-2.083858,6.5163527,5.3279457,0.27356935,-0.2872842,-0.07020916
-0.10778211,6.2798877,9.898595,0.021426082,0.06400717,0.45490712,-1.589839,6.4572363,6.4706078,0.21053353,-0.19946136,0.061069906
-1.5274826,4.115623,14.684398,-0.036972586,-0.16433407,-0.20751454,-1.5742499,5.871833,8.5240555,0.148657,-0.19067954,-0.006076202
0.09332217,8.168833,6.3672996,-0.03428478,-0.011007018,0.14678697,-1.1573569,6.446083,7.9848666,0.102921546,-0.1457614,0.032139592
-0.09341754,7.9820924,7.34888,0.03315468,-0.0017218725,0.08276835,-0.891372,6.8300853,7.82587,0.085479826,-0.10975152,0.04479678
0.24893859,6.349317,6.6857142,-0.0011759182,0.05325595,0.14251092,-0.6062944,6.709893,7.540831,0.06381589,-0.068999656,0.06922531
-0.08862935,7.089093,9.055872,-0.022678355,0.15844686,-0.033295944,-0.47687814,6.804693,7.9195914,0.042192332,-0.012138024,0.043594997
1.7452502,9.444887,13.276668,0.0051770867,0.004264598,-0.22022055,0.07865396,7.4647417,9.258861,0.03293852,-0.008037369,-0.02235889
-1.218644,-10.385432,-0.096767224,-0.014859286,-0.10007109,-0.05418752,-0.24567053,3.0021982,6.9199533,0.02098907,-0.031045798,-0.030316047
-0.27058083,6.3445287,-4.6168256,-0.069104075,-0.04912498,0.06370938,-0.2518981,3.837781,4.0357585,-0.0015342161,-0.035565592,-0.006809691
1.472323,8.879879,6.4726396,0.02362519,0.6920983,-0.044413682,0.17915714,5.0983057,4.6449785,0.0047556353,0.14635038,-0.016210688
1.9319899,6.102725,8.308913,0.0038331733,0.34146193,-1.3470215,0.61736536,5.3494105,5.560962,0.00452502,0.19512826,-0.34891337
-3.4834611,-0.708486,13.329339,0.54982406,-0.64618415,-1.0974224,-0.4078412,3.8349364,7.5030565,0.14084978,-0.01519984,-0.5360406
-4.7714868,8.101798,-1.7175721,0.7407804,-0.9952322,-0.3437374,-1.4987526,4.901652,5.1978993,0.29083246,-0.26020795,-0.4879648
0.32076156,8.760175,-0.4726407,0.0060322885,-0.52963114,1.8694254,-1.043874,5.8662825,3.7802644,0.21963242,-0.32756376,0.10138273
-3.5600724,-5.3219147,22.94404,0.071516976,0.053866826,1.9285573,-1.6729236,3.0692332,8.571209,0.18260355,-0.2322061,0.5581764
3.483366,8.104192,7.1214404,0.62703735,0.77627546,0.94628674,-0.38385117,4.327973,8.208767,0.29371202,0.01991427,0.655204
2.8968117,5.2743664,5.948332,0.7746222,1.0968573,0.48007473,0.43631458,4.5645714,7.643658,0.41393957,0.28915003,0.6114217
2.506574,13.933823,0.9566363,0.03193295,0.8730364,-1.2143419,0.9538794,6.906884,5.971903,0.3184379,0.43512163,0.15498081
-2.6120095,9.753725,7.6337776,-0.10367902,0.29601353,-1.5036474,0.062407196,7.618594,6.3873715,0.21290867,0.4003446,-0.25967625
-2.6503148,13.866787,4.1695166,0.389411,-0.4472866,-0.6447716,-0.6157733,9.180642,5.8329077,0.25703424,0.1884368,-0.3559501
3.1577685,4.8290644,15.337987,0.4539183,-0.46500167,-0.4086112,0.32761216,8.092748,8.209177,0.30625525,0.025077194,-0.36911535
2.2551935,15.497169,19.467808,0.48323977,-0.8206472,-0.21203496,0.8095075,9.943853,11.023834,0.3505014,-0.18635389,-0.32984525
-0.8547408,12.633826,11.885697,0.3549582,-0.8298101,0.41544527,0.39344543,10.616346,11.2393,0.3516156,-0.34721795,-0.14352262
-0.8738937,5.303096,16.137617,0.029122971,-0.20856065,1.4755399,0.076610655,9.2880335,12.463879,0.27099246,-0.3125536,0.26124302
5.640449,2.370325,11.885697,0.35776818,0.6048668,0.818616,1.4675703,7.558606,12.319333,0.2926864,-0.08319852,0.40058625
1.1658784,6.054843,14.765798,0.47994113,0.7217864,0.5482473,1.3921473,7.1826653,12.930949,0.33950007,0.118047714,0.4375015
1.1012378,6.0668135,7.3009977,0.33113444,0.898937,-0.41264296,1.3194199,6.9037023,11.523461,0.33740866,0.31327003,0.22496538
-0.6656071,2.245832,-4.4923325,-0.007651088,0.6592338,-1.1679162,0.82316315,5.739235,7.519513,0.25114372,0.39976096,-0.123255
-3.6414716,5.4539237,9.015173,0.26687154,-0.30006823,-1.5927113,-0.29299557,5.667907,7.893428,0.2550757,0.22480366,-0.49061906
-4.503348,4.185052,6.15183,0.6544041,-0.633356,-1.0893589,-1.3455837,5.2971935,7.4580283,0.3549078,0.010263741,-0.640304
-4.6230526,8.973249,0.37487024,0.34384045,-0.87843496,0.6004151,-2.1649508,6.2162075,5.6872387,0.35214096,-0.21191093,-0.33012426
-0.66800123,5.6071463,5.096033,0.08129082,-0.56310654,1.3647292,-1.7907134,6.063942,5.5394373,0.28442842,-0.29970983,0.0935891
4.761814,8.860727,15.416993,0.23510653,0.50871676,1.6267899,-0.15258157,6.7631383,8.008826,0.27209795,-0.09760317,0.4768893
0.14599234,2.8012629,12.56562,0.602114,0.7966783,0.8281455,-0.077938095,5.7726693,9.148025,0.35460198,0.1259672,0.56470335
2.6023378,8.690746,4.1575465,0.4854389,1.057762,-0.41789636,0.5921309,6.5021887,7.900405,0.38731122,0.35891593,0.3190534
-0.5339317,7.3308973,4.7895885,0.09033163,0.6239258,-1.4337645,0.31061524,6.709366,7.1227007,0.3130663,0.4251684,-0.119151056
-0.23945756,4.2472982,14.780162,0.1844048,-0.25962898,-1.0966892,0.17309704,6.093849,9.0370655,0.28090093,0.25396904,-0.36353558
-0.23945756,10.8669815,14.186426,0.50168794,-0.67599434,-0.9313893,0.06995839,7.2871323,10.324406,0.3360977,0.021478206,-0.505499
-1.6878873,3.8714247,9.024749,0.2778671,-0.50092053,1.1345553,-0.36950302,6.4332056,9.999492,0.32154006,-0.10912147,-0.09548542
1.4531702,4.955951,8.589023,-0.006795867,0.00841848,1.2318048,0.08616528,6.063892,9.646874,0.23945609,-0.079736486,0.23633716
-0.82361764,-4.9771643,12.046102,0.062354013,0.24433441,-0.21936534,-0.14128044,3.303628,10.246681,0.19518057,0.0012812391,0.122411534
1.7524326,7.943787,5.6394935,-0.033551745,0.050201632,-0.33591837,0.3321478,4.463668,9.094884,0.13799748,0.013511337,0.007829055
-0.5459022,6.102725,6.448699,0.01837176,-0.0057535837,0.024003167,0.112635314,4.873432,8.433338,0.10809105,0.008695107,0.011872583
-0.8691055,5.4084363,9.625668,-0.077900514,0.121061936,0.13408099,-0.1327999,5.007183,8.7314205,0.06159316,0.036786813,0.042424686
-2.7891726,2.5020003,19.707218,0.0032223226,0.06816105,-0.041603707,-0.7968931,4.3808875,11.47537,0.047000453,0.04463037,0.021417588
-0.20115195,3.8474836,12.192142,-0.008872815,0.03126482,-0.13799815,-0.6479578,4.2475367,11.654563,0.033032134,0.041288983,-0.018436346
-0.6129369,8.085039,6.415181,0.01849393,0.02002491,0.07739274,-0.6392026,5.206912,10.344717,0.029397583,0.035972964,0.005520925
-0.48365563,4.78597,8.562688,0.045982838,0.014160606,-0.054676212,-0.60031587,5.1016765,9.89921,0.033543896,0.030519875,-0.009528359
0.97913873,6.8137717,6.604315,-0.031963494,0.043115605,0.18221714,0.18956184,3.2597883,2.9369705,-0.007990873,0.010778901,0.045554284
-1.3048315,7.8911166,6.2212596,-0.029520039,-0.0011110101,0.012641081,-0.1840365,4.4176207,3.7580428,-0.013373164,0.007806423,0.037325982
-2.1307955,8.09701,6.546857,0.0015118881,-0.06867265,-0.23842432,-0.67072624,5.337468,4.4552464,-0.009651901,-0.011313344,-0.031611595
0.8737984,9.432917,3.9851713,0.08385646,-0.26378283,-0.45149398,-0.28459507,6.36133,4.3377275,0.0137251895,-0.07443071,-0.1365822
0.19387433,5.9925966,3.5662036,-6.87E-04,0.09296217,0.41043618,-0.16497773,6.269147,4.1448464,0.010122087,-0.03258249,1.72E-04
-0.5602668,8.099403,2.4242187,-0.050289437,-0.019192606,0.08313486,-0.2638,6.7267113,3.7146895,-0.004980794,-0.02923502,0.02091302
-1.0127516,6.559998,8.46453,-0.006062835,0.1998635,0.28007764,-0.45103788,6.685033,4.9021497,-0.0052513042,0.028039608,0.08570418
0.4069491,8.073069,6.5660095,0.03901899,0.042260382,-0.0908394,-0.23654114,7.0320415,5.3181148,0.0058162687,0.0315948,0.041568283
0.5697478,6.4355044,2.986832,-0.009972367,0.026988767,0.051614247,-0.034968898,6.8829074,4.735294,0.0018691095,0.030443292,0.044079773
0.7516994,9.351518,6.455881,0.027901243,0.05740983,0.06603066,0.16169818,7.50006,5.1654406,0.008377143,0.037184928,0.049567495
0.040652007,8.975643,-0.027338363,-0.015592324,0.029187884,-0.07214694,0.13143663,7.8689556,3.8672457,0.0023847762,0.035185665,0.019138888
0.5242599,8.532736,1.121829,0.036453348,0.0340748,-0.06628264,0.22964245,8.034901,3.1808915,0.010901919,0.03490795,-0.0022164937
0.5027131,6.153001,0.4802106,-0.006062831,-0.032142933,-0.03292943,0.2979101,7.5644255,2.5057213,0.0066607315,0.018145228,-0.009894729
-1.9751793,6.248765,13.343703,0.030466877,0.0081741335,0.037197843,-0.27036226,7.2355103,5.2152166,0.012612268,0.015652454,0.0018784143
-1.1396387,3.387817,7.667295,-0.023044871,-0.10239239,0.059799846,-0.48768136,6.273587,5.828236,0.003697984,-0.013858758,0.016358772
-0.97923416,2.111762,10.925663,0.011285728,-0.03348684,0.16095905,-0.61056954,5.233131,7.102593,0.00559492,-0.018765777,0.05250884
1.1467257,3.9312773,12.371699,-0.029153515,0.50224155,0.5372517,-0.17124575,4.9076676,8.419869,-0.0030921889,0.11148605,0.17369455
-3.7061124,6.054843,0.32698822,0.031077746,0.47805122,-0.6474593,-1.0549624,5.1944613,6.3966494,0.005450295,0.20312734,-0.03159392
-3.7061124,5.456318,8.117386,0.18672608,-0.51240474,-1.7085315,-1.7177498,5.2599254,6.8268337,0.05076924,0.024244323,-0.4508283
-4.4075837,5.243243,0.26952988,0.73552686,-0.8680502,-1.1139157,-2.3902082,5.255755,5.1875076,0.22195864,-0.19882931,-0.61660016
0.22260351,10.268457,5.0313926,-0.091461726,-0.2350722,1.6839669,-1.7370052,6.5089307,5.148479,0.14360355,-0.20789003,-0.04145837
-0.4238031,3.440487,14.169667,0.21543671,0.44298762,1.1890442,-1.4087048,5.74182,7.403776,0.16156185,-0.04517062,0.26616728
-0.8882583,4.6135955,15.996366,0.45452917,0.6117085,0.9537392,-1.2785932,5.4597635,9.551924,0.23480368,0.11904916,0.43806028
-0.7158832,-0.5097759,10.628795,0.57658,0.88818586,0.3422637,-1.1379157,3.9673786,9.821141,0.32024777,0.31133333,0.41411114
3.1577685,8.101798,7.619413,0.3780489,0.9972863,-0.23732476,-0.063994646,5.000983,9.270709,0.33469805,0.48282158,0.25125217
0.83070457,5.4778647,10.674283,-0.024388772,0.41745353,-1.7214818,0.15968016,5.1202035,9.621603,0.24492635,0.46647957,-0.24193132
0.10289857,3.3135996,9.652003,0.0691957,-0.12291743,-1.8432883,0.14548476,4.6685524,9.629203,0.20099369,0.3191303,-0.64227057
-6.8543525,6.6246386,0.30544138,1.0370499,-0.91594195,-1.3051163,-1.6044745,5.1575737,7.2982626,0.41000775,0.010362238,-0.80798197
-1.5681825,4.623172,0.10433708,1.1962411,-1.1171608,-0.08998419,-1.5954015,5.0239735,5.499781,0.6065661,-0.27151853,-0.6284825
0.9144981,10.409709,7.3393035,0.039018977,-0.33244404,1.5677804,-0.9679266,6.370407,5.9596615,0.4646793,-0.2867499,-0.07941681
1.4795053,8.269384,5.7304688,-0.06934842,0.021490987,1.4437748,-0.3560686,6.8451514,5.9023633,0.33117238,-0.20968968,0.3013811
7.725709,11.137515,2.5798352,0.30560035,0.43577942,0.8658969,1.6643758,7.9182425,5.071731,0.32477936,-0.04832241,0.44251007
4.644504,10.84304,6.81739,0.4374249,0.61525154,0.821426,2.4094079,8.649442,5.508146,0.35294074,0.117571086,0.5372391
0.36864352,3.2752943,6.76472,0.54579234,1.0692462,-0.1766048,1.8992168,7.305905,5.8222895,0.40115362,0.35548985,0.35877812
0.15556875,6.7706785,3.695485,0.18428263,0.8712039,-1.0463542,1.4633048,7.172098,5.2905884,0.34693587,0.48441836,0.0074950457
-0.251428,5.5784173,9.177971,0.09717331,-0.038129408,-1.6888616,1.0346216,6.773678,6.262434,0.28449523,0.3537814,-0.41659412
-1.877021,5.379707,10.633583,0.42142028,-0.428472,-1.237799,0.30671096,6.425185,7.3552213,0.31872648,0.15821806,-0.6218953
-2.3654172,7.3093505,7.1693225,0.75983936,-0.7348817,-0.4227833,-0.3613211,6.6462264,7.3087463,0.4290047,-0.06505689,-0.5721173
-4.1178975,5.441953,-3.338377,0.70131844,-0.9499061,0.08851048,-1.3004652,6.345158,4.6469655,0.49708313,-0.2862692,-0.40696037
2.561638,12.832537,9.704673,-0.023167044,-0.3785032,1.7279493,-0.33493936,7.967003,5.911392,0.36702058,-0.3093277,0.12676704
2.9159646,8.544706,11.291961,0.12625048,0.17359631,1.7041255,0.47778666,8.111429,7.2565346,0.30682805,-0.1885967,0.52110666
4.0340085,6.8688364,7.205234,0.7484773,1.2289263,0.33383372,1.3668422,7.8007812,7.2437096,0.41724035,0.16578406,0.47428843
2.3748984,4.199416,11.679805,0.4401127,1.0038836,-1.1005988,1.6188562,6.90044,8.352734,0.42295843,0.37530893,0.080566615
-3.64626,6.782649,9.721432,0.12661698,-0.272335,-1.6591735,0.30257714,6.8709927,8.694908,0.34887308,0.21339795,-0.35436842
-1.391019,6.998118,6.2523823,0.46112645,-0.4968888,-0.8283975,-0.12082189,6.902774,8.084276,0.37693644,0.035826266,-0.47287568
-0.84995276,11.046539,14.037992,0.29240564,-0.5681156,0.34446278,-0.3031046,7.938715,9.572705,0.35580373,-0.1151592,-0.26854107
0.14359826,6.67252,10.442055,0.12392917,-0.29762477,0.47372174,-0.1914289,7.622166,9.790043,0.29783508,-0.16077559,-0.08297536
0.7852167,15.669543,2.6540523,0.072738715,-0.11717531,0.17635281,0.052732497,9.63401,8.006045,0.241561,-0.14987552,-0.018143311
-1.5945176,8.326843,12.838548,0.036819857,-0.092496365,0.0811801,-0.35908002,9.307219,9.21417,0.19037572,-0.13553074,0.0066875424
-0.4860497,9.823154,12.922342,0.010430524,-0.015283073,0.124551505,-0.39082244,9.436203,10.141213,0.14538942,-0.105468825,0.036153533
-1.2521614,7.1848574,5.0673037,0.029245134,0.1663881,0.15692733,-0.6061572,8.873366,8.872736,0.11635335,-0.0375046,0.06634698
2.073242,7.9892745,2.9293735,-3.21E-04,0.18104883,0.08350139,0.06369257,8.652344,7.386895,0.08718483,0.017133757,0.07063559
-0.3040982,6.9143243,5.996214,-0.06275108,0.025034,-0.12981257,-0.02825512,8.217839,7.0392246,0.049700856,0.019108817,0.020523548
-1.0869685,3.8450894,10.829899,0.008231405,-0.039962012,-0.07581212,-0.29293346,7.124652,7.986893,0.039333493,0.0043411097,-0.0035603698
0.08613987,4.4938903,10.916087,-0.008384117,0.1171524,0.28643066,-0.19816513,6.4669614,8.719192,0.02740409,0.03254393,0.06893738
-0.57941955,6.8640485,6.5133395,-6.87E-04,-0.0026992583,9.12E-04,-0.14485489,1.7160121,1.6283349,-1.72E-04,-6.75E-04,2.28E-04
-4.77E-05,7.093882,7.7103887,-3.21E-04,-0.0030657777,0.0014011702,-0.10865308,3.0604796,3.1488483,-2.09E-04,-0.0012725553,5.21E-04
-0.6703953,6.830531,6.039308,-0.009972366,0.017214932,0.006165915,-0.24908864,4.0029926,3.8714633,-0.002649864,0.0033493163,0.0019325155
-0.5028084,6.923901,6.118313,-5.65E-04,-0.011373537,-0.034884196,-0.3125186,4.7332196,4.4331756,-0.0021286604,-3.31E-04,-0.0072716624
-0.7087009,6.7036433,7.0663757,-3.21E-04,-0.015771765,-0.047345836,-0.41156417,5.2258253,5.0914755,-0.0016766714,-0.004191489,-0.017290205
-0.66081893,6.7706785,7.0472236,0.0041996944,-0.001111011,-0.022178207,-0.47387785,5.6120386,5.5804124,-2.08E-04,-0.0034213695,-0.018512204
-0.4860497,6.6797023,5.673011,-7.64E-05,-0.021269549,-0.06212876,-0.4769208,5.8789544,5.603562,-1.75E-04,-0.007883415,-0.029416343
0.09571627,7.9653335,6.527704,0.01226311,-0.08040126,-0.1861343,-0.33376154,6.400549,5.8345976,0.0029346969,-0.026012875,-0.068595834
0.0358638,7.8264756,7.2148104,0.017150026,-0.2097824,-0.523576,-0.24135521,6.7570305,6.179651,0.006488529,-0.071955256,-0.18234089
-4.644599,6.550421,6.034519,0.0012675445,-0.12035179,-0.2894926,-1.3421661,6.705378,6.143368,0.005183283,-0.08405439,-0.20912883
0.28006187,7.488908,7.289027,0.04915934,-0.07820214,-0.012648718,-0.9366091,6.9012604,6.429783,0.016177297,-0.082591325,-0.1600088
-3.0716763,6.861654,6.166195,0.026435174,-0.022002593,0.18441625,-1.4703759,6.891359,6.363886,0.018741766,-0.067444146,-0.07390254
-0.08144702,6.239188,6.9969473,-0.015470147,0.099803835,0.37439516,-1.1231437,6.7283163,6.522151,0.010188788,-0.02563215,0.038171887
1.9415663,8.029975,8.284972,-0.016936222,0.3017557,0.7692581,-0.35696614,7.053731,6.9628563,0.0034075356,0.05621481,0.22094344
2.822595,8.671594,10.3630495,0.058566645,0.04665862,-0.30513078,0.43792415,7.4581966,7.8129044,0.017197313,0.053825762,0.08942488
-0.7996767,8.008428,8.407072,0.048304133,-0.38876578,-1.1998032,0.12852395,7.5957546,7.9614463,0.024974018,-0.056822125,-0.23288214
0.96477413,7.3739915,10.12364,-0.06800451,-0.12071833,-0.12272654,0.3375865,7.5403137,8.501995,0.0017293859,-0.07279618,-0.20534325
-1.074998,6.6461854,7.1693225,-0.018280126,-0.15382718,-0.18821125,-0.0155596435,7.3167815,8.168827,-0.003272992,-0.09305393,-0.20106025
1.0964495,8.216714,4.155152,0.10157154,0.030531786,0.27848938,0.26244265,7.5417647,7.165408,0.022938142,-0.0621575,-0.08117284
0.18190384,5.640664,7.954587,-0.007406732,0.044092976,0.09217567,0.24230795,7.0664897,7.362703,0.015351923,-0.03559488,-0.03783571
-1.4293246,8.513582,9.5131445,0.034865104,-0.10312543,0.027179662,-0.17560019,7.4282627,7.9003134,0.020230219,-0.052477516,-0.021581866
0.19866252,9.705844,10.482755,-0.022311836,0.15979077,0.21850254,-0.08203451,7.997658,8.545923,0.009594705,5.90E-04,0.038439237
0.96477413,7.912663,16.585314,0.049892377,0.0652289,-0.25601724,0.17966764,7.976409,10.555771,0.019669123,0.016749393,-0.035174884
-0.97683996,7.8671756,6.913154,-0.005940657,-0.16042452,-0.1616997,-0.109459266,7.9491005,9.645117,0.013266678,-0.027544085,-0.066806085
-0.7757357,7.352444,1.2199872,0.05636754,-0.113143615,0.0816688,-0.27602836,7.7999363,7.5388346,0.024041893,-0.048943967,-0.029687364
-0.4118327,6.490569,-2.2562444,-0.057497643,-0.0056314087,0.14690916,-0.30997944,7.4725943,5.090065,0.0036570095,-0.03811583,0.014461767
0.32076156,9.416159,5.1199737,0.12197441,0.14928387,0.266883,-0.15229419,7.9584856,5.0975423,0.03323636,0.008734096,0.07756707
1.98466,10.974716,13.298215,-0.006185002,0.20413953,-0.09511545,0.3819444,8.7125435,7.1477103,0.023381017,0.057585455,0.03439644
0.6726941,7.046,5.802292,-0.11223112,0.10921117,-0.4710416,0.4546318,8.295908,6.8113556,-0.010522015,0.07049188,-0.09196307
-2.2912002,8.992402,5.419236,0.22948661,-0.7164336,-0.8907057,-0.23182619,8.470032,6.4633255,0.04948014,-0.12623948,-0.29164875
1.3454359,7.464967,8.024015,0.0795804,0.045681234,1.7949001,0.16248932,8.218765,6.853498,0.057005204,-0.0832593,0.22998846
2.686131,5.9662614,11.959914,0.37462807,0.813416,0.46162662,0.7933997,7.655639,8.130102,0.13641092,0.14090952,0.287898
0.75409347,6.9693885,0.30783546,0.38110325,0.61219716,-0.6402511,0.78357315,7.4840765,6.1745358,0.197584,0.25873142,0.055860728
-2.456393,4.462767,6.4103928,9.01E-04,-0.47147688,-1.8917909,-0.026418388,6.7287493,6.2335,0.14841326,0.076179355,-0.43105218
-5.073143,4.7356944,13.834493,0.4903258,-0.8956613,-1.4618642,-1.2880995,6.2304854,8.133748,0.2338914,-0.1667808,-0.68875515
-1.1156977,7.345262,3.3866465,0.13431387,-0.098849386,1.6563557,-1.244999,6.5091796,6.946973,0.20899701,-0.14979795,-0.10247743
2.0133893,7.9892745,4.50469,-0.07643445,0.3558783,1.6350977,-0.43040192,6.8792033,6.336402,0.13763915,-0.023378879,0.33191636
4.1297727,6.4211397,5.218132,0.31109813,0.6736502,0.5956504,0.7096417,6.7646875,6.056834,0.1810039,0.1508784,0.39784986
0.6918469,5.1522675,5.5461235,0.19234604,0.75611687,-0.32907668,0.705193,6.3615828,5.9291563,0.18383944,0.302188,0.21611822
-0.42140907,7.845629,10.99988,0.062109664,-0.25571945,-1.4789684,0.42354247,6.7325945,7.1968374,0.153407,0.16271114,-0.20765343
-2.3678112,6.172154,9.786072,0.48885977,-0.71289057,0.13322578,-0.27429596,6.5924845,7.844146,0.23727019,-0.056189284,-0.12243363
-2.0254552,5.068474,12.663779,0.19112429,-0.30556604,1.3471361,-0.7120858,6.211482,9.049054,0.22573371,-0.11853348,0.24495882
1.9008667,7.371597,11.37336,0.14042254,0.5897174,1.0829983,-0.058847666,6.5015106,9.630131,0.20440592,0.058529243,0.45446867
3.356479,6.342135,5.7927155,0.30071342,0.7395014,0.24354793,0.794984,6.4616666,8.670777,0.2284828,0.22877228,0.4017385
1.3645886,9.203083,11.730081,0.004810559,-0.054256238,-1.9389495,0.93738514,7.147021,9.435603,0.17256474,0.15801516,-0.1834335
-2.5210338,4.436432,0.93269527,0.08055778,-0.6872342,-1.5911231,0.07278043,6.4693737,7.3098764,0.149563,-0.05329719,-0.5353559
-3.545708,4.8841286,5.708922,0.4285063,-0.7150897,0.88703275,-0.83184165,6.0730624,6.909638,0.21929882,-0.21874532,-0.17975876
2.8369594,9.25336,9.534692,-0.08681916,-0.082233846,1.9543358,0.08535862,6.868137,7.5659013,0.14276934,-0.18461746,0.35376486
8.4822445,7.7474704,2.9724672,0.54383755,0.98677945,0.8760373,2.18458,7.0879703,6.4175425,0.24303639,0.10823178,0.48433298
-1.5897293,7.4817257,7.138199,0.009453118,0.35697788,-1.4261898,1.2410028,7.186409,6.597707,0.18464057,0.1704183,0.006702304
-4.060439,3.3279643,6.8556952,0.063087046,-0.26732585,-1.5381001,-0.08435774,6.221798,6.662204,0.15425219,0.060982272,-0.3794983
-1.7070402,10.811917,0.034908205,0.39026618,-0.51594776,-0.3609638,-0.49002835,7.3693275,5.0053797,0.21325569,-0.08325024,-0.37486467
-1.7525281,5.049321,13.889558,0.21079412,-0.46109214,0.9479971,-0.8056533,6.7893257,7.226424,0.2126403,-0.17771071,-0.04414922
3.679682,7.127399,4.5022964,-0.0604298,0.12521581,1.8205563,0.31568056,6.873844,6.545392,0.14437278,-0.10197908,0.42202717
-0.9121992,6.662944,12.556045,0.4682126,0.8963714,-0.18735601,0.008710623,6.8211193,8.048056,0.22533274,0.14760855,0.2696814
-1.2593436,6.083572,4.8973227,0.07982474,0.47414175,-1.4797015,-0.30830294,6.6367326,7.260372,0.18895574,0.22924185,-0.16766435
-0.97683996,4.9511633,10.133217,0.24830127,-0.5381832,-1.3747548,-0.4754372,6.21534,7.9785833,0.20379212,0.037385583,-0.46943694
-4.6038995,7.290198,0.2599535,0.496068,-0.7673797,-0.33848393,-1.5075527,6.4840546,6.048926,0.2768611,-0.16380574,-0.43669868
0.062198892,6.9933295,4.334709,0.0380416,-0.1642119,1.6178714,-1.1151148,6.6113734,5.620372,0.21715623,-0.16390727,0.076943874
3.2559266,5.98302,7.497314,0.02264781,0.5277757,1.6349756,-0.022354484,6.454285,6.0896072,0.16852912,0.009013474,0.4664518
1.4603524,3.928883,0.5687923,0.18733694,0.6135411,-0.8777553,0.34832224,5.8229346,4.7094035,0.17323108,0.16014539,0.13040003
2.0923946,6.7682843,18.577204,0.09179769,-0.33342144,-1.2623558,0.7843403,6.059272,8.176353,0.15287273,0.036753684,-0.21778893
-3.864123,5.3485837,2.1105917,0.24036,-0.53635067,-0.37061545,-0.3777755,5.8816,6.659913,0.17474455,-0.10652241,-0.25599557
0.68945277,7.5343957,2.5918057,0.04537196,-0.17777309,0.845494,-0.11096841,6.294799,5.642886,0.1424014,-0.12433508,0.019376814
0.6296003,7.6157956,11.545735,0.005299253,0.08929697,0.548125,0.07417376,6.625048,7.1185985,0.108125865,-0.07092707,0.15156387
0.5697478,3.588921,13.85604,0.053557552,0.16443333,0.07507146,0.19806728,5.8660164,8.8029585,0.094483785,-0.012086969,0.13244076
-1.4508716,7.345262,15.124913,0.0013897172,0.1595464,0.0010346519,-0.21416745,6.235828,10.383448,0.071210265,0.030821376,0.09958923
-0.15326999,8.894244,0.9422716,-0.035995204,0.008418477,-0.22437443,-0.19894308,6.900432,8.023153,0.0444089,0.025220651,0.018598318
-0.0024417788,6.72519,14.466535,-0.027931789,-0.036174644,-0.09633719,-0.14981775,6.8566217,9.633999,0.026323726,0.009871827,-0.010135559
0.28006187,6.758708,2.3715484,-0.025732685,-0.025056906,0.08655572,-0.04234785,6.8321433,7.818386,0.013309624,0.0011396445,0.014037261
0.3877963,3.8881836,11.483488,0.018005243,-0.023835178,0.18356104,0.06518819,6.0961533,8.734661,0.014483528,-0.005104061,0.056418203
-0.08384113,2.930544,13.76267,-0.014614936,0.043482117,0.2938832,0.027930863,5.304751,9.991663,0.007208912,0.0070424834,0.11578445
0.0741694,5.927955,13.480166,-0.019013163,0.17151935,0.19211315,0.0394905,5.460552,10.863789,6.53E-04,0.0481617,0.13486663
2.4443274,2.9592733,2.704328,0.017394375,0.23773707,0.19321269,0.64069974,4.8352327,8.823923,0.004838639,0.095555544,0.14945313
0.39019042,4.4962845,13.154569,-0.058719374,0.09809342,-0.08900681,0.5780724,4.750496,9.906585,-0.011050864,0.09619001,0.08983815
0.16275105,7.000512,5.2612257,-0.0934165,0.05814287,-0.10550015,0.4742421,5.3129997,8.745245,-0.031642273,0.08667823,0.041003574
-1.0797863,7.3261094,10.6623125,-0.0074067325,0.0029206965,-0.09242765,0.08573499,5.816277,9.224512,-0.025583388,0.06573884,0.007645767
0.598477,5.3390074,11.890485,-0.0011759158,-6.22E-04,-0.09291634,0.2139205,5.6969595,9.8910055,-0.019481521,0.049148552,-0.01749476
-1.3048315,6.6988554,0.27671218,-0.01583667,-0.14393117,-0.2797188,-0.16576749,5.9474335,7.4874325,-0.018570308,8.79E-04,-0.083050765
0.10529266,6.519298,6.628256,0.06797398,-0.10471367,-0.046734966,-0.09800245,6.0903997,7.2726383,0.003065765,-0.02551945,-0.073971815
-1.9081446,7.0148764,4.0306587,0.019471312,-0.2079498,-0.21692187,-0.550538,6.321519,6.4621434,0.0071671517,-0.07112704,-0.10970933
-0.016806379,6.5839386,6.161407,-0.007406735,0.10102557,0.3758612,-0.41710508,6.387124,6.386959,0.00352368,-0.02808889,0.0116833
-0.66800123,6.1577888,5.301925,-0.026832234,0.09345085,0.33212334,-0.47982913,6.32979,6.1157007,-0.0040652985,0.0022960454,0.09179331
1.5321754,4.649507,8.012045,-0.040393427,0.17518456,0.4651697,0.02317202,5.9097195,6.5897865,-0.013147331,0.045518175,0.1851374
0.6559354,5.3677363,7.4805555,0.047448914,0.14036526,-0.11649572,0.18136287,5.774224,6.812479,0.0020017307,0.069229946,0.109729126
-0.5842077,5.6310873,8.093445,0.050381072,-0.13562343,-0.6594323,-0.010029778,5.7384396,7.1327205,0.014096566,0.018016603,-0.082561225
-0.46210873,7.0388174,7.200446,0.022892157,0.02002491,0.10158299,-0.12304951,6.063534,7.149652,0.016295463,0.018518679,-0.03652517
0.21781531,7.072335,7.083135,-0.002397641,-0.02004782,0.048071235,-0.037833303,6.315734,7.133023,0.011622187,0.008877054,-0.015376069
-0.071870625,7.0076942,6.824094,-5.65E-04,-0.010884846,-0.024132974,-0.03449588,3.0675719,2.9775505,-1.41E-04,-0.0027212114,-0.0060332436
0.0013887913,7.0632377,6.794407,0.0031001377,-0.038984623,-0.102568,-0.025524711,4.0664883,3.9317646,6.69E-04,-0.011787064,-0.030166933
-0.6162887,6.9885416,6.7752533,0.003344485,-0.05584449,-0.13702078,-0.1732157,4.797002,4.642637,0.0013379368,-0.022801422,-0.056880396
-0.46881217,6.970825,6.798237,0.0023671011,0.0020654863,-0.03512854,-0.24711482,5.340458,5.1815367,0.001595228,-0.016584694,-0.051442433
-0.6316109,7.000991,6.7197113,0.0040775225,-0.013328306,-0.08350902,-0.34323883,5.7555914,5.56608,0.0022158017,-0.015770597,-0.05945908
-0.6119793,7.4640093,6.51717,0.014095703,-0.046070654,-0.22571832,-0.41042393,6.182696,5.8038526,0.0051857773,-0.023345612,-0.10102389
-1.0170609,7.3419104,6.2724924,0.03168861,-0.1587141,-0.51355773,-0.5620832,6.4724994,5.9210124,0.0118114855,-0.057187736,-0.20415735
-1.8640931,7.0234957,6.3036165,0.05099193,-0.25009948,-0.39480567,-0.88758564,6.6102486,6.0166636,0.021606596,-0.10541567,-0.25181943
-2.1681435,7.0560555,6.4099145,0.0886212,-0.12181788,-0.041481532,-1.207725,6.7217,6.1149764,0.038360246,-0.109516226,-0.19923496
-0.8949617,7.6660714,5.814263,-0.008384119,0.15893556,0.5405504,-1.1295342,6.957793,6.039798,0.026674155,-0.04240328,-0.014288619
-0.33139095,7.9251127,5.8013344,-0.0032528536,0.057776354,0.12711713,-0.9299984,7.199623,5.9801817,0.019192403,-0.017358372,0.021062817
-0.022552196,7.916973,5.9449806,0.00529925,-0.10642409,-0.24673209,-0.70313686,7.3789606,5.971381,0.015719116,-0.039624803,-0.04588591
-0.48365563,7.9284644,5.5930476,0.02557996,-0.089075536,-0.14483984,-0.64826655,7.5163364,5.8767977,0.018184327,-0.051987484,-0.070624396
-0.55883026,7.7532167,6.2131195,0.03510945,-0.16604449,-0.09450459,-0.6259075,7.5755568,5.9608784,0.022415608,-0.080501735,-0.07659444
0.3317744,7.9658127,5.894225,-0.027443098,0.2605834,0.47775343,-0.386487,7.6731205,5.944215,0.009950932,0.004769549,0.061992526
-0.30314058,7.9174514,6.441516,0.08226821,0.09931515,-0.036838964,-0.36565042,7.7342033,6.06854,0.02803025,0.02840595,0.037284654
0.22212467,7.3050413,6.193488,-0.009361502,0.06535107,-0.19077687,-0.21870664,7.626913,6.099777,0.018682312,0.03764223,-0.019730728
-0.51046956,7.172887,4.823106,0.025824308,-0.19096777,-0.37159285,-0.29164737,7.5134068,5.780609,0.02046781,-0.01951027,-0.107696265
-1.0534512,7.5042305,8.015397,0.022892153,-0.08980856,0.09950605,-0.48209834,7.5111127,6.339306,0.021073896,-0.03708484,-0.055895686
-0.37496352,7.3443055,6.280154,-0.00520762,-0.056333188,0.089732215,-0.45531464,7.469411,6.324518,0.014503517,-0.041896928,-0.01948871
-0.26291972,7.891117,6.4491777,-0.05505418,0.10835596,0.2365841,-0.4072159,7.5748377,6.3556833,-0.002885907,-0.0043337047,0.044529494
-0.62969565,7.6900125,6.2887726,0.055634506,0.021613155,0.033532653,-0.46283585,7.6036315,6.338956,0.0117441965,0.00215301,0.041780286
-0.101078615,7.194434,7.63282,0.030955568,0.011106282,-0.020956475,-0.37239653,7.5013323,6.662422,0.01654704,0.004391328,0.026096094
-0.60814875,7.788171,5.748664,-0.06751583,0.041405175,0.121252835,-0.43133458,7.573042,6.433983,-0.0044686776,0.01364479,0.04988528
-0.4180573,7.381653,6.0680366,-0.06995928,0.009151516,0.05796724,-0.42801526,7.5251946,6.3424964,-0.020841328,0.012521472,0.05190577
-0.4185361,6.6873636,7.333079,-0.0010537426,0.088319585,0.16034818,-0.42564547,7.315737,6.5901423,-0.015894432,0.031471,0.07901637
0.5218659,6.5011024,7.3469644,-0.072158396,0.069993645,-0.4238828,-0.18876763,7.112078,6.779348,-0.029960424,0.04110166,-0.04670842
0.23409519,6.122835,8.012525,0.037797254,-0.21686845,-0.7603471,-0.08305192,6.8647676,7.087642,-0.013021003,-0.023390863,-0.2251181
-2.2270381,6.4369407,7.735766,0.12625048,-0.4467979,0.43719205,-0.6190485,6.7578106,7.249673,0.021796867,-0.12924263,-0.05954057
-1.8329697,5.387368,7.3517523,0.004321868,-0.032142933,1.2958236,-0.92252874,6.4152,7.2751927,0.017428117,-0.104967706,0.27930045
1.7002413,6.5729256,8.948617,0.3373653,0.73974574,0.9024266,-0.26683623,6.454632,7.6935487,0.09741241,0.10621066,0.435082
2.187201,6.6945467,4.609552,0.14970766,0.38837633,-1.1469024,0.34667307,6.5146103,6.9225492,0.110486224,0.17675208,0.03958589
0.7823438,7.641652,6.9241667,0.022159118,-0.18876867,-1.7167169,0.45559075,6.7963705,6.9229536,0.08840445,0.08537189,-0.39948982
-3.45569,7.185336,6.9773154,0.3938092,-0.7341487,-0.29902208,-0.52222943,6.893612,6.936544,0.16475564,-0.11950826,-0.3743729
-3.3805153,6.4278436,5.7137103,0.31708458,-0.54697967,0.7604617,-1.2368009,6.7771697,6.6308355,0.20283788,-0.22637612,-0.09066427
-0.3080314,6.6822677,6.695975,0.08739946,-0.13144046,1.2736462,-1.0046085,6.753444,6.6471205,0.17397828,-0.2026422,0.25041336
1.9593512,6.9641447,8.2389145,0.27630213,0.79852843,0.78885233,-0.2636186,6.8061194,7.0450687,0.19955924,0.047650456,0.38502312
3.1939075,5.847012,6.0285916,0.27897823,0.80440426,-0.561915,0.60076296,6.5663424,6.7909493,0.219414,0.2368389,0.1482886
-0.7937483,6.3984528,8.127304,0.047198758,-0.35600597,-1.2436982,0.25213516,6.52437,7.125038,0.17636019,0.088627696,-0.19970812
-1.9059784,6.420456,7.8023906,0.3335489,-0.62740445,-0.81103134,-0.2873932,6.4983916,7.2943764,0.21565737,-0.09038034,-0.35253894
-3.1311867,5.317916,5.440555,0.16524108,-0.2081185,1.7753698,-0.99834156,6.203273,6.830921,0.2030533,-0.11981488,0.17943823
0.61272764,6.6301107,8.718076,-0.09824523,0.46930134,1.8703738,-0.59557426,6.3099823,7.3027096,0.12772867,0.027464174,0.60217214
3.390908,6.9905934,6.124697,0.34367177,0.71748704,-0.54981405,0.40104628,6.480135,7.0082064,0.18171445,0.19996989,0.3141756
1.324573,6.635583,6.476174,0.0044382294,0.30564776,-1.3662202,0.63192797,6.518997,6.8751984,0.1373954,0.22638935,-0.105923355
-1.3559054,6.7534637,8.157515,0.28072363,-0.61815417,-1.2087334,0.13496962,6.577614,7.1957774,0.17322746,0.015253469,-0.3816259
-3.2754025,6.106943,7.693403,0.57213515,-0.89955926,-0.39116377,-0.7176235,6.459946,7.3201838,0.27295437,-0.21344972,-0.38401037
-0.5503484,5.7688046,7.5274105,-0.09190387,0.17626084,2.1641707,-0.67580473,6.287161,7.37199,0.1817398,-0.11602208,0.2530349
1.2309752,7.038476,9.202937,0.21562289,0.74320155,1.3730136,-0.19910976,6.47499,7.829727,0.19021058,0.09878382,0.53302956
3.254672,6.399593,4.8730392,0.24296632,0.5587785,-1.3952508,0.6643357,6.4561405,7.090555,0.20339951,0.21378249,0.050959468
0.9208823,6.381123,7.6167917,-0.023079785,-0.012350921,-1.8302447,0.72847235,6.437386,7.2221146,0.14677969,0.15724914,-0.41934156
-2.9672477,6.728725,7.0230536,0.5396139,-0.75452244,-0.22896464,-0.1954577,6.5102205,7.1723495,0.24498823,-0.07069376,-0.37174734
-2.9625738,5.9556584,6.549365,0.33325797,-0.6160016,0.8836817,-0.8872367,6.37158,7.0166035,0.26705566,-0.20702073,-0.057890087
0.7819106,7.294872,8.492232,0.04103192,0.46994132,1.4951282,-0.4699499,6.602403,7.3855104,0.21054973,-0.037780225,0.33036447
2.0071192,6.720402,8.3666,0.31272128,0.7856711,0.50064045,0.14931738,6.6319027,7.630783,0.23609261,0.16808261,0.37293345
1.1914155,6.449413,6.059601,0.027767435,0.24124521,-1.5262085,0.40984192,6.5862803,7.2379875,0.18401131,0.18637326,-0.10185206
-0.49482808,6.6860867,8.0358715,0.10898337,-0.50214803,-1.6950982,0.18367442,6.611232,7.4374585,0.16525432,0.014242947,-0.50016356
-2.5933127,6.681413,5.340687,0.2405811,-0.50866395,0.8301584,-0.5105723,6.628777,6.9132657,0.18408602,-0.11648378,-0.16758305
-0.8840402,6.526822,6.788889,-0.050190534,-0.10246802,1.0876523,-0.6039393,6.603288,6.8821716,0.12551689,-0.11297984,0.14622581
0.83309865,7.4515157,7.2487836,0.06616465,0.3535861,0.360258,-0.24467981,6.815345,6.9738245,0.11067883,0.0036616474,0.19973385
0.9741225,6.8331532,7.259158,0.054354597,0.37191203,-0.06391481,0.060020775,6.819797,7.045158,0.09659777,0.09572424,0.1338217
0.09241015,6.477345,6.1632314,0.035214163,0.063047245,-0.5210161,0.06811812,6.7341843,6.8246765,0.08125187,0.08755499,-0.029887766
-0.564713,6.8942595,7.145153,0.014328398,-0.13568741,-0.38447332,-0.09008966,6.7742033,6.9047956,0.064521,0.03174439,-0.118534155
-1.0968868,7.2079997,7.3049874,2.49E-04,-0.12556452,0.29952064,-0.34178892,6.8826523,7.0048437,0.048453107,-0.007582836,-0.014020458
-0.1441496,6.4681106,7.0224843,-0.054495677,-0.037425462,0.28247455,-0.29237908,6.779017,7.009254,0.022715911,-0.015043492,0.060103297
-0.070730574,6.1280336,7.6002603,-0.02965385,0.11947951,0.12143901,-0.23696695,6.616271,7.1570053,0.009623472,0.018587258,0.075437225
0.1349339,6.6444755,7.6071005,-0.04693259,0.12128301,0.02422424,-0.14399174,6.623322,7.2695293,-0.0045155436,0.044261195,0.06263398
-0.3668008,6.8314433,7.7582703,-0.007022765,0.029769655,0.024398774,-0.19969401,6.675352,7.3917146,-0.005142349,0.04063831,0.053075176
0.008730693,5.8180556,7.420703,0.0037982627,0.04466312,0.013228676,-0.14758784,6.461028,7.3989615,-0.002907196,0.041644514,0.043113552
-0.44056183,6.5718546,7.9126325,-0.0022521974,0.07101757,0.172868,-0.22083133,6.4887347,7.527379,-0.0027434463,0.048987776,0.075552166
0.06083084,6.6238403,6.648777,-0.00981529,0.041986957,-0.034011528,-0.1504158,6.522511,7.307729,-0.004511407,0.04723757,0.048161242
-0.29075962,6.6815267,7.447379,0.013223043,0.02848975,-0.028193768,-0.18550175,6.562265,7.3426414,-7.78E-05,0.042550616,0.02907249
-0.22326887,6.463778,7.0973845,0.01368846,-0.0142707825,-0.06845266,-0.19494353,6.5376434,7.2813272,0.003363769,0.028345266,0.004691202
-0.14414968,6.0712605,7.6265955,-0.009524398,-0.047315653,-0.057108033,-0.18224508,6.4210477,7.3676443,1.42E-04,0.009430036,-0.010758607
-0.35414627,5.8824677,8.134373,-0.0076627154,-0.112416364,-0.22239056,-0.22522038,6.2864027,7.559326,-0.0018093834,-0.021031564,-0.0636666
-0.41069263,5.8495207,8.055595,0.03160716,-0.093217775,-0.016325543,-0.27158844,6.177182,7.6833935,0.0065447525,-0.039078116,-0.051831335
-0.33020532,5.964209,7.9453526,0.018691733,-0.008045778,0.10968713,-0.28624266,6.123939,7.7488832,0.009581498,-0.03132003,-0.011451721
0.25509486,5.705076,8.197988,0.0015293439,0.022032034,0.11725019,-0.15090829,6.019223,7.8611593,0.0075684595,-0.017982015,0.020723756
0.092866145,5.7006297,8.022078,0.0065326155,0.028955169,-0.03156807,-0.08996468,5.9395747,7.901389,0.0073094983,-0.0062477197,0.0076508
-0.43030143,6.9339333,6.888643,0.038879354,0.00795306,0.0045602126,-0.17504886,6.188164,7.6482024,0.015201962,-0.0026975248,0.0068781534
-0.27023876,7.123751,6.6376047,0.010023266,-0.004555125,0.011308814,-0.19884634,6.422061,7.395553,0.013907287,-0.003161925,0.007985819
-0.090544604,7.076644,6.761847,-0.0012980881,-0.0015997025,5.73E-05,-0.06358418,3.09675,2.950138,-3.25E-04,-4.00E-04,1.43E-05
-0.22748704,6.9540663,6.8949585,-8.09E-04,-0.0064866203,-0.014114793,-0.1045599,4.061079,3.9363432,-4.46E-04,-0.0019215993,-0.0035179607
-0.12645608,6.9717827,6.8398943,0.0016340637,-0.0067309663,0.015695404,-0.110033944,4.788755,4.662231,7.42E-05,-0.003123941,0.0012853807
-0.20402488,7.724008,6.025422,0.018249582,-3.78E-04,0.04086303,-0.13353167,5.522568,5.003029,0.0046180533,-0.002437449,0.011179793
-0.0033994138,7.8293486,6.148,0.011163551,0.01550451,0.089732215,-0.10099861,6.099263,5.2892714,0.006254428,0.0020480407,0.0308179
0.35092717,7.756089,6.0239854,-0.0047189305,0.12057324,0.24098234,0.011982836,6.5134697,5.47295,0.0035110884,0.03167934,0.08335901
0.67413056,8.073069,5.93684,0.019960005,0.03285307,0.0034781126,0.17751977,6.9033694,5.5889225,0.0076233177,0.031972773,0.06338879
-0.18726619,7.979219,5.869806,0.004810559,0.11202113,0.25368828,0.086323276,7.172332,5.6591434,0.006920128,0.05198486,0.11096366
0.60996866,8.057746,6.000045,0.00896444,0.13034709,0.28252113,0.21723463,7.3936853,5.7443686,0.0074312063,0.07157542,0.15385303
1.3176641,8.1492,6.2169504,0.03877464,0.15038344,-0.08864029,0.492342,7.5825644,5.862514,0.015267065,0.09127742,0.093229696
-0.2921277,7.9787407,5.454669,0.008720094,-0.026522983,-0.3405609,0.29622456,7.681608,5.760553,0.013630322,0.06182732,-0.01521796
-0.39076456,7.4199586,5.5331955,0.017272202,0.018192314,-0.13750947,0.12447728,7.6161957,5.7037134,0.014540792,0.050918568,-0.045790836
-0.7034339,8.10084,5.6251287,0.012873977,-0.13989946,-0.43756625,-0.0825005,7.7373567,5.6840672,0.014124089,0.0032140613,-0.1437347
-1.1439481,7.649791,6.382622,0.03339903,-0.20000856,-0.30561945,-0.34786242,7.715465,5.858706,0.018942825,-0.047591593,-0.18420589
-1.0682945,7.7948737,6.5492506,0.01360701,-0.150162,0.09852867,-0.52797043,7.735317,6.031342,0.017608872,-0.07323419,-0.11352225
-0.61628866,7.2676935,5.90045,0.0055436078,-0.030676864,0.20823997,-0.55005,7.618411,5.998619,0.014592556,-0.06259486,-0.033081695
-0.10443039,7.396975,6.809728,-0.069959275,-0.09787198,-0.14093031,-0.43864512,7.563052,6.2013965,-0.006545402,-0.07141414,-0.06004385
-0.71779853,7.174323,6.4798217,-0.009361501,-0.014550036,0.22412246,-0.50843346,7.46587,6.271003,-0.007249427,-0.057198115,0.0109977275
0.22978583,7.5305657,7.1410723,-7.63E-05,0.015504506,0.1232076,-0.32387865,7.4820437,6.48852,-0.005456157,-0.03902246,0.039050195
-0.18966028,7.332334,6.312714,-0.013515381,-0.014061345,-0.06249528,-0.29032406,7.4446163,6.4445686,-0.007470963,-0.032782182,0.0136638265
-0.49945664,6.6188927,6.7920127,-0.002031126,0.026500072,0.03548742,-0.3426072,7.2381854,6.53143,-0.006111004,-0.017961618,0.019119725
-0.09389634,6.9219847,8.142283,-0.07338013,-0.14649682,-0.18026999,-0.28042948,7.1591353,6.934143,-0.022928284,-0.050095417,-0.030727703
-1.0994178,7.0124826,7.630905,-0.088529564,0.07414752,0.8281455,-0.48517656,7.1224723,7.1083336,-0.039328605,-0.019034682,0.1839906
0.34422374,6.209023,8.012525,0.06834049,0.46412352,0.81201863,-0.2778265,6.8941097,7.334381,-0.012411332,0.10175487,0.3409976
2.5338666,6.9985976,6.4755125,0.09326378,0.3018779,-1.1532553,0.4250968,6.920232,7.119664,0.014007447,0.15178561,-0.032565624
-0.55021155,6.3713427,6.0215917,0.11256709,-0.27111325,-1.5410322,0.18126972,6.7830095,6.845146,0.038647357,0.046060897,-0.40968227
-2.8614743,6.2506804,6.5492506,0.3490939,-0.7021394,0.15204042,-0.5794163,6.649927,6.7711725,0.116258994,-0.14098918,-0.26925159
-2.6560607,6.3780465,5.36513,0.15801544,-0.41601035,1.324412,-1.0985774,6.581957,6.419662,0.1266981,-0.20974448,0.12916431
0.1373736,7.0249314,7.9995956,-0.11296417,0.23932534,1.770832,-0.78958964,6.6927004,6.8146453,0.066782534,-0.09747703,0.5395812
2.4032855,6.6619177,4.6042166,0.12236422,0.50321895,-1.4962472,0.008629143,6.6850047,6.262038,0.08067796,0.052696966,0.030624092
-0.58568984,6.537767,7.210022,0.009150609,-0.04801378,-1.3871641,-0.1399506,6.6481953,6.499034,0.062796116,0.027519278,-0.32382298
-3.6133132,7.1579533,7.189729,0.45036945,-0.8213686,-0.048148703,-1.0082912,6.775635,6.6717076,0.15968946,-0.1847027,-0.2549044
-2.7181478,6.262446,4.9576316,0.18135625,-0.5721357,1.3312418,-1.4357554,6.6473374,6.243189,0.16510615,-0.28156096,0.14163217
2.6283307,7.8858724,8.979602,0.22039343,0.77903897,0.66347957,-0.41973388,6.956971,6.927292,0.17892797,-0.016410977,0.272094
3.33288,7.257023,5.2429852,0.24884233,0.80399704,-1.0612532,0.5184196,7.0319843,6.506215,0.19640656,0.18869102,-0.06124279
-1.8215009,7.3345466,8.168801,0.17076796,-0.4020826,-0.92994654,-0.06656051,7.107625,6.9218616,0.18999691,0.040997624,-0.27841872
-2.476914,7.306843,6.7251587,0.4332653,-0.7451559,-0.11522744,-0.66914886,7.1574297,6.872686,0.25081402,-0.15554075,-0.23762089
-0.8281779,6.1498094,6.498519,-0.067469284,-0.09763926,1.5997317,-0.7089061,6.9055247,6.7791443,0.17124319,-0.14106537,0.22171724
2.2266924,8.042402,8.90037,0.32714927,0.6132909,0.8762933,0.024993539,7.189744,7.3094506,0.21021971,0.047523692,0.38536125
1.7255276,6.248194,5.1164393,0.011128636,0.38994712,-1.8233216,0.45012707,6.9543567,6.761198,0.16044694,0.13312955,-0.16680944
-2.1635149,6.334496,9.0854,0.16733547,-0.48114592,-1.1607952,-0.20328343,6.7993917,7.3422484,0.16216907,-0.020439312,-0.41530588
-1.3940973,6.0467486,5.680991,0.036261335,-0.5308878,1.0642649,-0.50098693,6.611231,6.9269342,0.13069214,-0.14805143,-0.045413196
-0.74655044,6.9176307,7.5622973,0.0031001219,-0.083443955,1.1977825,-0.5623778,6.687831,7.085775,0.09879413,-0.13189957,0.26538575
3.588592,7.3160777,5.8779907,0.27734935,0.9397253,-0.6892657,0.47536469,6.8448925,6.7838287,0.14343295,0.13600665,0.026722878
1.2982378,5.632912,5.8122096,-0.058684498,0.24880831,-1.6827062,0.68108296,6.5418973,6.540924,0.092903584,0.16420707,-0.4006344
-3.0519533,6.672635,7.04939,0.2924755,-0.74050164,0.7235189,-0.2521761,6.5745816,6.6680403,0.14279656,-0.061970115,-0.119596064
0.55777735,8.826013,13.329339,0.01264126,-0.17402644,1.1578145,-0.049687743,7.1374393,8.3333645,0.11025774,-0.08998419,0.19975656
0.3099881,9.835125,6.223653,0.028291035,0.3434632,-0.025750311,0.04023122,7.8118606,7.805937,0.08976606,0.018377662,0.14337984
-1.9991202,-1.9605997,10.425297,-0.02499964,0.21564704,-0.32076886,-0.46960664,5.368746,8.460777,0.061074637,0.06769501,0.027342662
-1.3586986,7.518835,9.83994,0.0010057376,-0.0040897,-0.23961115,-0.69187963,5.906268,8.805568,0.04605741,0.04974883,-0.039395794
2.4527063,11.096815,7.6529303,0.07919643,-0.07774253,-0.06903444,0.09426689,7.203905,8.517408,0.054342166,0.017875992,-0.046805456
-1.4101719,5.036154,5.743637,-0.030584697,-0.12294653,0.043190133,-0.2818428,6.6619673,7.8239655,0.03311045,-0.01732964,-0.024306558
-0.2921277,8.4142275,4.685445,0.05784525,0.02866428,0.13621613,-0.28441402,7.1000323,7.0393353,0.03929415,-0.0058311606,0.015824117
-0.6955334,5.2312727,14.97169,-0.02552323,0.06601429,0.019162789,-0.38719386,6.6328425,9.022424,0.023089804,0.012130202,0.016658785
-1.2234323,1.0846939,2.6564462,0.019157149,0.06927224,-0.08573142,-0.59625345,5.2458053,7.430929,0.02210664,0.026415713,-0.008938765
-2.7305174,-2.8320515,5.7951097,0.046791505,-0.019332234,-0.11563469,-1.1298194,3.226341,7.0219746,0.028277855,0.014978726,-0.035612747
0.3506878,5.9255614,3.866663,0.04417351,-0.050573602,-0.011438624,-0.7596926,3.9011462,6.2331467,0.032251768,-0.0014093565,-0.029569216
0.20823893,5.990202,10.043438,0.005194535,-0.0072894706,0.06465767,-0.51770973,4.42341,7.1857195,0.02548746,-0.002879385,-0.0060124937
0.44166356,7.9629397,5.0673037,0.03858847,0.016446985,0.03446349,-0.27786642,5.3082924,6.6561155,0.028762713,0.0019522076,0.004106503
-0.5554786,5.899226,3.278912,-0.010978834,0.009349321,0.01840648,-0.34726948,5.456026,5.811815,0.018827327,0.003801486,0.0076814974
-0.9098051,4.4699492,5.0589247,0.026313,-0.03149135,-0.11423842,-0.4879034,5.209507,5.6235924,0.020698745,-0.0050217235,-0.022798482
-0.36155653,4.783576,3.4692428,0.027825613,-0.0010062899,-0.022725075,-0.45631668,5.1030245,5.085005,0.022480462,-0.0040178653,-0.022780132
0.08733693,4.7871675,8.640496,-0.014527673,0.0012044576,-0.015569232,-0.32040328,5.0240602,5.973878,0.013228428,-0.0027122847,-0.020977408
-0.4908379,5.716078,7.784606,0.012466734,-0.026778962,0.01142517,-0.36301193,5.1970644,6.42656,0.013038004,-0.008728954,-0.012876763
0.039454967,7.3536415,8.2011795,0.046558805,0.03151498,0.0049674585,-0.2623952,5.736209,6.870215,0.021418205,0.0013320297,-0.008415707
0.331535,7.4039173,7.0448294,-0.005161078,-0.025906302,0.014159515,-0.11391264,6.1531363,6.9138684,0.014773384,-0.0054775532,-0.002771902
-0.18439327,6.981359,6.8245726,-1.58E-04,-0.002577086,-0.0043409583,-0.046098318,1.7453398,1.7061431,-3.95E-05,-6.44E-04,-0.0010852396
-0.23706345,6.9622064,6.692897,-8.09E-04,0.007441095,-0.0064178975,-0.0938396,3.0495563,2.9528315,-2.32E-04,0.0013770701,-0.002418404
-0.40225625,6.895171,6.812602,1.68E-04,0.010861936,-0.026820779,-0.17094377,4.01096,3.9177742,-1.32E-04,0.0037482865,-0.008518998
-0.20594014,7.263863,6.5899506,0.009941822,9.66E-04,0.044894736,-0.17969286,4.824186,4.5858183,0.0023864885,0.0030526973,0.004834436
0.023893312,7.031635,6.7910547,0.0041996944,-0.00440968,0.061754603,-0.12879632,5.376048,5.1371274,0.00283979,0.0011871029,0.019064479
0.5242599,6.1889124,7.0735583,-1.99E-04,0.01880318,0.050026003,0.03446774,5.579264,5.621235,0.0020802096,0.005591122,0.02680486
-1.3096198,7.9629397,6.2499886,0.0037110052,0.032975238,0.07018454,-0.30155414,6.1751833,5.7784233,0.0024879086,0.012437151,0.03764978
-0.03595914,8.058703,9.146848,0.009575304,0.1464739,0.32870248,-0.23515539,6.6460633,6.620529,0.004259757,0.045946337,0.110412955
1.4675348,6.5240865,5.9650908,-0.006429351,0.16748765,0.39785236,0.19051714,6.615569,6.45667,0.0015874803,0.07633167,0.1822728
-0.5147789,9.308423,4.4783554,0.009697476,0.05325595,-0.13433297,0.0141931325,7.2887826,5.9620914,0.0036149793,0.070562735,0.10312136
-1.386231,4.134775,5.11758,0.08239038,-0.19756511,-0.7151432,-0.33591288,6.500281,5.7509637,0.02330883,0.0035307705,-0.10144477
-2.6311622,10.4863205,5.5197883,-0.006551522,0.092106946,-0.02730947,-0.9097252,7.496791,5.6931696,0.015843742,0.025674814,-0.08291095
-2.602433,7.5774894,-0.23083675,0.007131848,-0.17728439,-0.6106853,-1.3329022,7.5169654,4.2121677,0.013665768,-0.025064988,-0.21485454
-0.23945756,7.632554,4.171911,0.052335836,-0.13672298,0.00482201,-1.059541,7.5458627,4.2021036,0.023333285,-0.052979484,-0.1599354
0.20823891,11.690552,1.9549755,-0.027320927,-0.11106667,0.025713585,-0.74259603,8.582035,3.6403217,0.0106697325,-0.06750128,-0.113523155
0.12683956,9.906948,14.057145,-0.11369719,0.05814287,0.2915619,-0.52523714,8.913263,6.244528,-0.020421999,-0.03609024,-0.012251891
-0.06229426,6.595909,5.438389,0.09680679,0.11971803,0.25772002,-0.40950143,8.333925,6.042993,0.008885197,0.0028618276,0.055241086
-0.02638276,8.824816,-1.3177576,0.008231405,0.054599855,-0.16670878,-0.31372178,8.456648,4.2028055,0.008721749,0.015796334,-2.46E-04
0.10768677,4.053376,10.942422,-0.08865173,0.04360429,-0.056020107,-0.20836964,7.35583,5.8877096,-0.01562162,0.022748321,-0.014189814
1.4771112,10.266064,3.8199782,-0.010583233,-0.0028214308,-0.18869995,0.21300057,8.083388,5.3707767,-0.014362023,0.016355883,-0.057817347
0.0047405213,7.3045626,0.90396607,-0.025121817,-0.080279075,-0.05064451,0.16093555,7.888682,4.254074,-0.017051972,-0.007802855,-0.056024138
-0.3376156,10.606026,4.7249475,0.07750346,0.024789654,0.062121127,0.03629776,8.568018,4.3717923,0.006586885,3.45E-04,-0.026487822
-0.323251,12.413569,2.9581027,-0.009850193,-0.068550475,-0.07312432,-0.053589433,9.529406,4.0183697,0.0024776156,-0.016878664,-0.038146947
0.4715898,11.156668,8.390313,-0.0104610585,0.0607085,0.07238364,0.07770538,9.936221,5.111356,-7.57E-04,0.0025181267,-0.0105143
3.04764,11.712098,3.8463135,0.056611888,0.042504728,0.14886393,0.82018906,10.38019,4.7950954,0.013585182,0.0125147775,0.029330257
0.40455502,8.468095,19.13503,-0.055665065,0.121672794,-0.019368222,0.7162806,9.902166,8.380079,-0.0037273802,0.03980428,0.017155638
-1.5394531,8.034763,6.3337817,-0.06702712,-0.03470857,-0.11600702,0.15234715,9.435316,7.868505,-0.019552317,0.021176066,-0.016135028
-1.1492152,8.199955,7.6361713,-0.043203413,-0.16592233,-0.2398904,-0.17304343,9.126476,7.8104215,-0.02546509,-0.025598533,-0.07207387
0.96477413,7.685224,15.862294,0.047815442,-0.061586622,0.22619937,0.111410975,8.766163,9.823389,-0.007144958,-0.034595557,0.0024944395
-1.4484774,4.9990454,9.575392,-0.013637554,-0.1573702,0.031944405,-0.27856112,7.8243837,9.76139,-0.008768107,-0.065289214,0.009856931
1.8458024,6.437898,11.672622,-0.019501856,0.26864684,0.9235625,0.25252974,7.477762,10.239198,-0.011451544,0.018194795,0.23828332
1.3191007,7.079517,7.20284,0.16131411,0.6740167,0.36364397,0.5191725,7.378201,9.480108,0.03173987,0.18215027,0.2696235
-2.5952506,10.337887,6.2164707,0.037186384,0.072803624,-1.5376114,-0.25943327,8.118122,8.664199,0.0331015,0.15481362,-0.18218523
-2.966336,6.8401074,16.439274,0.15679371,-0.5451471,-1.2709079,-0.93615896,7.7986183,10.607967,0.06402455,-0.02017656,-0.4543659
1.228125,1.764618,4.514267,0.2145815,-0.69212115,1.4006479,-0.39508796,6.290118,9.084542,0.10166379,-0.18816271,0.009387553
2.2839227,18.465849,12.029343,-0.025488341,0.06461803,1.6727271,0.2746647,9.334051,9.820743,0.06987576,-0.12496753,0.42522246
4.5654984,3.2920532,3.2717297,0.4952128,0.90944403,-0.4160638,1.347373,7.8235517,8.183489,0.17621002,0.13363536,0.2149009
0.6152357,12.193313,18.060078,0.059299685,0.49039078,-1.486421,1.1643387,8.915992,10.652636,0.14698243,0.22282422,-0.21042956
-3.7252653,7.19204,9.762131,0.3472613,-0.70678186,-0.5387254,-0.058062315,8.485003,10.43001,0.19705215,-0.009577304,-0.29250354
-4.905556,1.0942702,-7.719578,0.363999,-0.8144162,0.5853879,-1.2699358,6.63732,5.892613,0.23878887,-0.21078703,-0.07303068
-1.5969115,11.218914,7.9976807,0.015195262,0.5396265,1.3454257,-1.3516798,7.7827187,6.41888,0.18289047,-0.023183644,0.28158343
1.5082345,4.7835765,1.6700777,0.53247553,1.0087705,-0.40726733,-0.6367012,7.032933,5.2316794,0.27028674,0.23480487,0.10937074
-1.2018853,10.620389,7.186081,0.24842337,-0.05486711,-1.2143419,-0.77799726,7.929797,5.7202797,0.2648209,0.16238686,-0.22155741
-0.5482963,7.5104547,14.756221,0.19271253,-0.49957663,-0.5076935,-0.720572,7.8249617,7.979265,0.2467938,-0.0031040013,-0.29309145
0.6343885,6.38044,2.3428195,0.024236053,-0.29921302,1.7580038,-0.38183188,7.4638314,6.5701537,0.19115436,-0.07713126,0.21968237
2.4922092,10.622784,14.818468,0.140056,0.4702322,1.0884961,0.3366784,8.25357,8.632233,0.17837977,0.05970961,0.4368858
0.41891962,3.7253847,0.19531281,-0.0011759158,0.69490826,-1.2621114,0.3572387,7.1215234,6.5230026,0.13349086,0.21850927,0.012136489
3.0284874,7.967728,19.800589,0.043539394,0.035296537,-1.4649185,1.0250509,7.3330746,9.8424,0.111003,0.1727061,-0.35712725
-0.66321295,13.002518,8.416648,0.21885756,-0.80268764,0.42998385,0.6029849,8.750435,9.485962,0.13796663,-0.071142346,-0.16034947
0.5170777,4.3741856,12.982194,-0.23953535,0.21989985,0.79613614,0.5815081,7.6563725,10.36002,0.04359114,0.0016182065,0.078771934
2.4706624,10.009894,12.393246,0.20285287,0.2958914,-0.18295781,1.0537966,8.244753,10.868326,0.083406575,0.075186506,0.013339497
0.10529266,3.0310965,7.324939,0.063697934,0.048491213,-0.20433806,0.81667066,6.9413385,9.982479,0.07847942,0.068512686,-0.041079894
0.6152357,10.708971,5.9938197,0.012507463,-0.020292161,-0.1950529,0.7663119,7.8832464,8.985314,0.061986428,0.046311475,-0.07957315
0.7229702,9.444887,2.7809393,-0.0626289,-0.11778617,-0.14239638,0.7554765,8.273657,7.4342203,0.030832596,0.005287066,-0.095278956
-0.20115195,6.926295,15.771318,0.061987504,-0.020903029,0.07433842,0.5163194,7.936816,9.518495,0.03862132,-0.0012604576,-0.05287461
-0.66321295,4.9008875,7.16214,-0.037339102,-0.07013872,-0.0623731,0.22143632,7.177834,8.929406,0.019631214,-0.018480023,-0.055249233
0.92886263,8.271778,8.419042,0.025457788,9.66E-04,0.124673665,0.3982929,7.45132,8.801815,0.021087859,-0.013618535,-0.010268509
0.3997668,7.0627584,9.529904,-0.029031346,0.04433733,-0.023522109,0.39866138,7.35418,8.983837,0.008558057,8.70E-04,-0.013581909
-0.8451645,5.7412157,6.261959,0.06577486,-0.057432737,-0.21154624,0.0877049,6.9509387,8.303368,0.022862257,-0.013705362,-0.063072994
-0.47647327,3.3207822,3.3962226,-0.122982346,-2.56E-04,0.20518564,-0.053339645,6.0434,7.0765815,-0.013598895,-0.010342971,0.0039916635
-0.8667113,5.738822,11.375754,0.025824308,0.066450626,0.122718915,-0.25668257,5.9672556,8.151375,-0.0037430935,0.008855428,0.033673476
-1.0917568,5.0469275,7.913887,0.040851578,0.057043314,0.0649311,-0.46545112,5.7371736,8.092003,0.0074055744,0.020902399,0.041487884
1.0772967,6.3134055,5.651464,0.049525857,0.035174355,0.06639718,-0.07976416,5.8812313,7.4818683,0.017935645,0.024470389,0.04771521
-0.30649227,6.9071417,6.977794,0.011407901,0.0053641535,-0.06286179,-0.13644618,6.1377087,7.3558497,0.016303709,0.01969383,0.020070959
-0.9433226,7.2231627,6.290688,0.039507676,0.051545527,-0.07642299,-0.33816528,6.409072,7.0895596,0.022104701,0.027656753,-0.0040525272
0.08853397,6.80659,7.904311,0.008109229,0.009029343,0.01288543,-0.23149046,6.5084515,7.293247,0.018605832,0.022999901,1.82E-04
-0.02638276,7.0843053,6.7814784,-0.003008509,-0.008685733,0.009912553,-0.00659569,1.7710763,1.6953696,-7.52E-04,-0.0021714333,0.0024781383
-0.39746803,7.125005,6.5588274,-5.65E-04,-0.0106405,0.004822013,-0.104313776,3.1095586,2.911234,-7.05E-04,-0.0042887,0.003064107
-0.323251,6.9885416,6.779084,-0.0012980872,-0.008685733,-0.00898353,-0.15904808,4.079304,3.8781965,-8.54E-04,-0.005387958,5.22E-05
-0.10538803,7.122611,6.793449,-3.21E-04,0.0020654863,-0.008006146,-0.14563307,4.840131,4.6070094,-7.20E-04,-0.003524597,-0.0019623884
-0.16763459,6.8209543,6.7814784,-0.0016646064,0.0053641554,-0.010571778,-0.15113345,5.3353367,5.1506267,-9.56E-04,-0.001302409,-0.004114736
0.30160877,7.2135863,7.7103887,0.012507455,0.006463711,0.10488167,-0.037947893,5.804899,5.7905674,0.002409564,6.39E-04,0.023134366
1.0916613,7.6277657,5.6203403,0.034254234,0.009395861,0.11099029,0.24445441,6.260616,5.7480106,0.010370732,0.002828306,0.04509835
1.0030797,8.484854,6.676138,-0.008628464,0.056798965,0.21153863,0.43411073,6.816675,5.9800425,0.005620933,0.01632097,0.08670842
0.8139459,7.5487604,9.76692,0.0051770783,0.13169098,0.2302311,0.52906954,6.9996967,6.9267616,0.0055099693,0.04516347,0.12258909
0.26090908,9.028315,4.4280796,0.013240492,0.1432974,0.002867246,0.46202943,7.506851,6.302091,0.0074426,0.069696955,0.092658624
3.4690015,6.9669943,5.675405,-0.019379685,0.19448787,0.041351724,1.2137724,7.371887,6.1454196,7.37E-04,0.10089468,0.0798319
-1.2401909,1.3911386,2.0938332,-0.020479241,-0.13440168,-0.39016312,0.6002816,5.8767,5.132523,-0.0045670383,0.04207059,-0.037666857
1.2496718,9.069014,6.7335963,0.04744891,0.027843978,-0.07996601,0.76262915,6.6747785,5.532791,0.008436949,0.038513936,-0.048241645
-2.432452,2.1548562,8.591417,0.0040775244,-0.05095758,-0.055042725,-0.036141157,5.544798,6.2974477,0.007347093,0.016146056,-0.049941916
-2.6215856,6.9909353,0.5831568,0.052580178,-0.13696732,-0.11564051,-0.68250227,5.906332,4.868875,0.018655363,-0.022132285,-0.06636657
0.4356783,5.5568705,15.689919,0.0037110099,-0.02065868,0.30170226,-0.40295714,5.818967,7.5741363,0.014919275,-0.021763884,0.025650635
-0.74461234,9.37067,3.1783597,-0.029520042,0.047636,0.20005436,-0.48837095,6.706893,6.475192,0.0038094465,-0.004413914,0.06925157
0.7732462,6.665338,5.07688,0.05086975,0.078667924,0.08337922,-0.17296666,6.696504,6.125614,0.015574522,0.016356546,0.07278348
-1.074998,8.934944,1.0093064,-0.014737104,0.07573578,-0.09340504,-0.3984745,7.256114,4.846537,0.007996616,0.031201355,0.03123635
-1.3790486,4.505861,2.4290068,0.060887948,0.027721804,0.13322578,-0.64361805,6.5685506,4.2421546,0.02121945,0.030331466,0.05673371
-0.38070935,9.011556,5.433601,-0.012660179,0.09442824,0.060166355,-0.5778909,7.1793017,4.540016,0.012749542,0.04635566,0.05759187
2.3102577,8.638076,3.034714,-0.041004293,0.11861849,0.0188719,0.14414626,7.5439954,4.1636906,-6.89E-04,0.06442137,0.04791188
-0.14369358,1.4462029,12.544074,0.04109592,0.13841051,-0.23732477,0.072186306,6.0195475,6.258786,0.009757292,0.08291866,-0.023397285
-1.5011476,4.8027296,19.685673,0.3071886,-0.80598634,-0.7502067,-0.3211472,5.715343,9.615508,0.084115125,-0.13930759,-0.20509964
-0.9145934,7.927028,12.862489,-0.03575087,-0.260362,1.7125554,-0.46950877,6.2682643,10.427254,0.054148626,-0.16957119,0.2743141
2.877659,8.312478,6.5684032,0.093508124,0.46827745,1.7691214,0.36728323,6.779318,9.462542,0.0639885,-0.010109037,0.6480159
2.686131,5.0086217,4.6028485,0.30987638,0.8681495,-0.78233826,0.94699514,6.3366437,8.247619,0.12546048,0.20945561,0.2904274
0.15796286,5.8513446,9.862684,-0.020357067,0.25777343,-1.675789,0.7497371,6.2153187,8.651385,0.08900609,0.22153506,-0.2011267
-1.7597103,6.1745477,14.930991,0.37927064,-0.7852169,-0.6973059,0.12237525,6.205126,10.221287,0.16157222,-0.030152947,-0.3251715
-0.1269349,3.2848706,14.284584,0.37817106,-0.85546637,0.78477407,0.060047712,5.475062,11.237111,0.21572194,-0.23648131,-0.047685117
1.5249932,5.566447,10.892146,0.052335836,0.25911734,1.2456104,0.42628407,5.497908,11.150869,0.17487541,-0.11258165,0.27563876
1.7739794,6.155395,5.8382034,0.39002183,0.8217238,0.7911271,0.7632079,5.66228,9.822702,0.22866201,0.120994724,0.40451086
2.1187298,11.5229645,10.5330305,0.06039925,0.3089639,-1.6718795,1.1020885,7.127451,10.000284,0.18659632,0.16798702,-0.11458671
-2.552157,8.468095,9.76692,0.059788384,-0.30703208,-1.2359664,0.1885271,7.462612,9.941943,0.15489434,0.049232244,-0.39493164
-2.1499481,7.4458146,0.7746848,0.36607596,-0.85033506,0.6799497,-0.3960917,7.4584126,7.6501284,0.20768975,-0.17565958,-0.12621132
0.8211282,7.912663,7.913887,-0.0083841095,-0.3153398,1.8079724,-0.09178674,7.571975,7.7160683,0.15367128,-0.21057963,0.3573346
3.7467167,0.81176674,0.83214307,0.40065092,0.9684536,0.28899625,0.8678391,5.881923,5.9950867,0.2154162,0.084178686,0.34025002
2.4347508,11.09921,8.012045,0.21164933,0.8157374,-1.2531928,1.259567,7.186245,6.499326,0.21447447,0.2670684,-0.058110684
-3.933552,8.049128,3.8798308,0.18000656,-0.43531367,-1.0123899,-0.03871274,7.4019656,5.8444524,0.20585749,0.091472864,-0.29668048
-1.874627,4.2784214,3.9564419,0.3758498,-0.7744657,-0.09389374,-0.4976913,6.6210794,5.37245,0.24835557,-0.12501177,-0.2459838
4.2829947,10.728125,3.9684124,-0.12738056,-0.14124338,1.7051028,0.6974802,7.6478405,5.0214405,0.15442154,-0.12906967,0.24178787
4.558316,4.7380886,-2.174845,0.3242928,0.600102,1.0271653,1.6626892,6.9204025,3.2223692,0.19688936,0.053223252,0.43813223
-0.761371,6.8448954,11.5936165,-0.048090328,0.5550203,-1.33175,1.0566741,6.9015255,5.315181,0.13564444,0.1786725,-0.004338324
-3.4307911,7.1657043,1.9262463,0.4717556,-0.81295013,0.19528963,-0.06519222,6.9675703,4.467947,0.21967223,-0.06923315,0.045568664
-0.40225625,5.83698,4.3323154,0.119897485,-0.4643908,1.294724,-0.14945823,6.6849227,4.434039,0.19472855,-0.16802257,0.3578575
3.4522429,14.130138,7.595472,0.13932298,0.5103049,0.4225313,0.750967,8.5462265,5.224397,0.18087716,0.0015593022,0.37402594
0.80197537,6.9693885,9.4078045,0.11012362,0.43724552,-0.41093254,0.7637191,8.152017,6.270249,0.16318879,0.11048086,0.17778632
-0.29212773,5.0948095,6.692897,-0.05371029,-0.0097852945,-0.57036823,0.49975738,7.387715,6.3759108,0.10896402,0.080414325,-0.00925231
1.3406476,9.883007,10.418114,0.055756688,-0.21185932,-0.26957843,0.7099799,8.011538,7.3864613,0.095662184,0.007345915,-0.07433384
-0.61772513,5.2647905,2.6372933,0.02167042,-0.08211167,0.10170516,0.37805364,7.324851,6.199169,0.07716425,-0.015018482,-0.030324087
-1.9081446,4.970316,8.268214,0.100716315,-0.07331522,0.05576813,-0.1934959,6.7362175,6.7164307,0.08305226,-0.029592667,-0.008801032
-0.45492643,5.01341,9.04869,0.014828738,-0.037518546,-0.01350393,-0.25885352,6.305516,7.2994957,0.06599638,-0.031574138,-0.009976756
-0.38549757,5.4778647,1.9549755,0.12038615,0.074025355,0.16242512,-0.29051453,6.0986032,5.9633656,0.07959382,-0.0051742643,0.033123713
-0.07187061,6.378046,-0.1326787,-0.031841323,0.015626684,0.079103164,-0.23585355,6.1684637,4.4393544,0.051735036,2.60E-05,0.044618577
-0.1484818,6.100331,12.254388,-0.047235116,0.011228456,0.019360602,-0.21401061,6.1514306,6.3931127,0.026992498,0.0028265936,0.038304083
-0.37113297,5.4347715,11.114797,-0.018402305,0.045559056,0.13078232,-0.2532912,5.9722657,7.5735335,0.015643798,0.013509709,0.061423644
-0.86671144,6.4182673,7.2784934,-0.008056109,0.007040356,-0.037965436,-0.3659888,2.8162515,3.1638713,-0.0020140272,0.001760089,-0.009491359
-0.72641724,6.708432,6.8844247,0.0051385676,-0.008597781,0.0021072887,-0.4560959,3.7892966,4.0940094,-2.26E-04,-8.29E-04,-0.006591697
-0.7584982,6.88368,6.908366,0.012224601,0.005574281,-0.09147719,-0.5316965,4.5628924,4.797599,0.0028867412,7.72E-04,-0.02781307
-1.0984602,7.1403275,6.511903,-0.010499568,-0.07750332,-0.34070998,-0.6733874,5.207251,5.226175,-4.60E-04,-0.01879718,-0.1060373
-1.7079977,6.8324456,6.67135,0.035681807,-0.14885232,-0.39690953,-0.93204,5.6135497,5.5874686,0.0085755745,-0.051310964,-0.17875536
-1.9474077,6.859739,6.748918,0.041546103,-0.15031838,-0.2385734,-1.1858819,5.925097,5.877831,0.016818207,-0.07606282,-0.19370987
-1.9651239,6.870752,7.0639825,0.045699988,-0.113910854,-0.009621311,-1.3806924,6.1615105,6.174369,0.024038652,-0.08552483,-0.14768773
-1.3579805,7.312223,6.0215917,-0.0068343803,0.09427184,0.36887047,-1.3750144,6.4491887,6.1361747,0.016320394,-0.04057566,-0.01854819
-0.5727161,7.5133276,6.1987543,0.006360301,4.43E-04,-0.2828,-1.1744399,6.7152233,6.1518197,0.013830371,-0.03032099,-0.08461114
-1.019455,6.92438,6.3567653,0.028595772,-0.08263458,-0.55377954,-1.1356937,6.7675123,6.2030563,0.01752172,-0.04339939,-0.20190324
-1.6845356,7.087657,6.9629507,0.13586362,-0.31891707,-0.78566384,-1.2729042,6.8475485,6.39303,0.047107194,-0.112278804,-0.3478434
-2.6268528,5.95046,7.5360975,0.21747512,-0.46699068,-0.6952559,-1.6113913,6.623276,6.678797,0.08969918,-0.20095678,-0.43469653
-2.7546976,5.6334815,6.978752,0.13390884,-0.43229353,0.5313605,-1.8972179,6.375828,6.7537856,0.10075159,-0.25879097,-0.19318226
-0.59378415,5.697164,7.3393035,-0.0857581,0.17295122,1.6526637,-1.5713594,6.206162,6.900165,0.05412417,-0.15085542,0.26827922
1.2171122,5.507552,9.375246,0.03421573,0.41167715,1.4989702,-0.8742415,6.0315094,7.518935,0.04914706,-0.010222286,0.57595193
2.1345308,5.900663,7.894255,0.5551611,0.7434988,0.83825886,-0.12204838,5.998798,7.6127653,0.17565057,0.178208,0.64152867
2.3480844,6.349317,6.3835793,0.45229152,0.7339694,-0.027458562,0.49548483,6.0864277,7.3054686,0.2448108,0.31714833,0.47428185
1.63991,6.9736977,5.9464164,0.0117359115,0.30783015,-0.931294,0.7815911,6.308245,6.9657054,0.18654208,0.3148188,0.12288788
-0.45923582,6.5192976,6.9600782,0.06475897,-0.06284257,-1.0111952,0.47138438,6.361008,6.9642987,0.15609631,0.22040346,-0.16063288
-2.3237598,6.7769027,6.7364693,0.29615453,-0.31403014,-1.0664173,-0.22740164,6.464982,6.9073415,0.19111086,0.08679506,-0.387079
-2.7556553,6.704122,8.434843,0.43909687,-0.6052904,-0.12299781,-0.859465,6.524767,7.289217,0.25310737,-0.086226314,-0.3210587
-2.1499484,6.738598,6.1728983,0.32327688,-0.56766117,0.44730553,-1.1820859,6.5782247,7.0101376,0.27064973,-0.20658502,-0.12896764
-0.81643534,6.75775,6.7460456,-0.039576724,-0.096562296,0.995862,-1.0906732,6.623106,6.9441147,0.19309312,-0.17907934,0.15223977
1.2592483,7.249498,7.5198183,0.16298601,0.53409445,0.41505185,-0.50319284,6.779704,7.0880404,0.18556634,-7.86E-04,0.21794279
1.1093776,6.3426137,6.668956,0.1202255,0.65480137,-0.22293526,-0.10005021,6.6704316,6.983269,0.16923113,0.16311093,0.10772328
0.51133174,6.880807,6.168111,-0.056192245,0.15315917,-1.2169344,0.052795276,6.7230253,6.7794795,0.11287528,0.16062298,-0.22344114
-2.6771288,6.443166,7.775508,0.21087779,-0.3272248,-0.9750319,-0.6296857,6.6530604,7.0284867,0.1373759,0.03866104,-0.41133884
-2.0479598,6.673957,7.4953985,0.22724894,-0.5527561,0.339549,-0.98425424,6.6582847,7.1452146,0.15984416,-0.10919324,-0.22361687
-0.644539,6.5341415,7.422139,-0.025404662,-0.029611524,1.0549936,-0.89932543,6.627249,7.2144456,0.113531955,-0.089297816,0.09603575
0.56543845,7.133624,8.051309,0.06475898,0.25773925,0.4905547,-0.53313446,6.7538424,7.423661,0.101338714,-0.002538547,0.19466549
1.2539812,6.479556,6.5114236,0.06989022,0.5421578,-0.18335125,-0.08635554,6.685271,7.195602,0.09347659,0.13363555,0.10016131
-0.06899774,5.813997,6.629692,0.026641004,0.4519942,-0.6771742,-0.08201609,6.467452,7.0541244,0.0767677,0.21322522,-0.094172575
-0.7972826,6.76637,7.917239,0.12706718,-0.10315963,-0.6300155,-0.2608327,6.5421815,7.269903,0.089342564,0.134129,-0.22813329
-1.3302088,6.7031646,6.6962485,0.2912676,-0.3995512,-0.20045547,-0.5281767,6.582427,7.1264896,0.13982382,7.09E-04,-0.22121383
-1.8674446,5.034957,6.092936,0.021509748,-0.52270156,0.09544742,-0.8629937,6.1955595,6.868101,0.1102453,-0.13014367,-0.14204852
-0.53919876,7.3936234,8.239485,0.032260966,-0.19967625,0.7204842,-0.782045,6.495075,7.210947,0.09074922,-0.14752682,0.07358466
0.3552366,6.896608,7.2052336,-0.011476953,0.045647006,0.66526204,-0.4977246,6.5954585,7.2095184,0.06519268,-0.09923336,0.221504
1.4933913,7.5080614,6.4170966,0.15809909,0.6069095,-0.03112375,5.44E-05,6.8236094,7.011413,0.08841928,0.07730237,0.15834707
0.3983304,6.3263335,6.00579,-0.017585598,0.20178404,-0.84088606,0.09962337,6.6992903,6.7600074,0.06191806,0.108422786,-0.09146121
-0.9390132,6.415873,7.3694687,0.017111514,-0.037430596,-0.5799246,-0.16003577,6.628436,6.9123726,0.050716422,0.071959436,-0.21357706
-1.9191573,7.0613227,7.788436,0.29566583,-0.50193214,-0.09978495,-0.59981614,6.7366576,7.1313887,0.11195377,-0.07151346,-0.18512903
-1.2186439,5.331346,4.909772,0.18033455,-0.5336971,0.5235414,-0.7545231,6.3853297,6.5759845,0.12904897,-0.18705937,-0.007961422
-0.28303012,5.703868,6.0766554,-0.0021918095,-0.0034665202,0.9042324,-0.63664985,6.2149644,6.4511523,0.09623878,-0.14116116,0.22008702
1.0772969,7.0033846,7.4298005,-0.06743215,0.51918936,-0.10589359,-0.20816317,6.4120693,6.695814,0.055321045,0.023926467,0.13859187
0.30448171,6.821433,7.9885836,0.08699443,0.44173172,-0.47705498,-0.08000195,6.51441,7.0190067,0.063239396,0.12837778,-0.015319839
-0.5449446,6.3660755,6.5253096,0.046433028,0.021945452,-0.5684404,-0.19623761,6.4773264,6.895582,0.059037805,0.1017697,-0.15359998
-2.0268915,5.640664,7.8741455,0.07086762,-0.3088989,-0.42036676,-0.6539011,6.268161,7.140223,0.06199526,-8.97E-04,-0.22029167
-1.0290313,6.1755056,6.958642,-0.020762093,-0.2505002,0.5340483,-0.74768364,6.244997,7.0948277,0.041305922,-0.063298136,-0.031706676
0.068423584,5.707699,7.331642,-0.006834377,-0.04353925,0.39623722,-0.5436568,6.1106725,7.1540313,0.029270846,-0.058358416,0.075279295
-0.11496438,4.8463016,8.034549,-0.1571071,0.19347627,0.078587554,-0.4364837,5.7945795,7.374161,-0.01732364,0.0046002567,0.07610636
-0.07330712,5.184348,8.612486,-0.042508885,0.14338537,-0.14792109,-0.34568956,5.6420217,7.683742,-0.02361995,0.039296534,0.020099498
-0.23658462,4.8549204,7.9311247,-0.0144091025,-0.0044439016,-0.21218404,-0.31841332,5.445246,7.745588,-0.021317238,0.028361425,-0.037971385
-0.5143001,4.6303544,9.29193,0.085772716,-0.07750332,0.028740985,-0.36738503,5.2415233,8.132174,0.00545525,0.0018952377,-0.021293292
-0.38262466,5.25282,8.337164,0.031283576,-0.026923724,0.18145718,-0.37119493,5.2443476,8.183421,0.011912331,-0.0053095026,0.029394327
-0.42476073,5.30549,7.906705,0.0041611893,0.17832683,0.42384833,-0.3845864,5.259633,8.114243,0.009974546,0.04059958,0.12800783
0.16418749,5.1987133,8.406114,-0.034689814,0.15169314,0.05879552,-0.24739292,5.244403,8.18721,-0.0011915443,0.068372965,0.11070475
-0.20019433,5.273409,8.160958,0.0051385676,-0.025946338,-0.2781574,-0.23559327,5.2516546,8.180647,3.91E-04,0.04479314,0.013489209
-0.6852387,5.2758036,8.623019,-0.042753227,-0.006154322,-0.08023728,-0.34800464,5.257692,8.29124,-0.010395069,0.032056276,-0.009942412
-0.5933053,5.3203335,8.264861,0.016378477,-0.017638579,0.022143653,-0.4093298,5.273352,8.284645,-0.0037016822,0.019632563,-0.0019208957
-0.66512835,5.725415,8.147073,0.0803971,0.0058186254,0.008704627,-0.47327945,5.386368,8.250252,0.017323013,0.01617908,7.35E-04
-0.37927294,6.6835327,7.1133003,-0.0034135375,0.003619513,-0.003023975,-0.094818234,1.6708832,1.7783251,-8.53E-04,9.05E-04,-7.56E-04
-0.33186975,6.697419,7.140115,-0.003169192,-7.79E-04,1.53E-04,-0.1540811,2.9275172,3.1187725,-0.0014323363,4.84E-04,-5.29E-04
-0.3625142,6.682097,7.1372423,-0.003169192,0.0026421305,-0.003757013,-0.20618938,3.866162,4.12339,-0.0018665502,0.001023518,-0.0013359021
-0.32229334,6.6682115,7.0443506,-0.0021918085,-0.0037108632,-0.004978743,-0.23521537,4.566674,4.85363,-0.0019478648,-1.60E-04,-0.0022466122
-0.40752324,6.6744356,7.1832075,-0.00390223,0.007529047,-0.009376968,-0.27829233,5.0936146,5.4360247,-0.002436456,0.0017622038,-0.0040292013
-0.4343372,6.9066634,6.973485,0.00440553,-0.0063986676,0.007238552,-0.31730354,5.546877,5.8203897,-7.26E-04,-2.78E-04,-0.001212263
-0.28303015,7.11064,6.6569853,-0.0039022304,-0.051113963,-0.07706079,-0.3087352,5.9378176,6.0295386,-0.0015200272,-0.012987001,-0.020174395
-0.21886829,7.2581167,6.4999323,-0.010010878,-0.039141018,-0.026969874,-0.28626847,6.2678924,6.147137,-0.0036427397,-0.019525506,-0.021873266
-0.41183263,7.437196,6.5186067,0.019554973,0.055665184,0.21371081,-0.3176595,6.5602183,6.2400045,0.0021566884,-7.28E-04,0.037022755
0.510853,7.5358324,6.017761,7.40E-04,0.14167494,0.36300617,-0.110531375,6.804122,6.1844435,0.0018026017,0.03487286,0.118518606
0.63151556,7.7728486,5.838682,-0.00927784,-0.06626341,-0.4729011,0.07498036,7.0463037,6.0980034,-9.68E-04,0.009588793,-0.029336318
-0.323251,7.520031,5.9344463,0.0024507614,-0.19576673,-0.42623106,-0.024577484,7.164736,6.057114,-1.13E-04,-0.04175009,-0.12856
-0.8547409,7.277748,6.0804863,0.02737404,-0.12930465,-0.092210226,-0.23211834,7.192989,6.0629573,0.0067588044,-0.06363873,-0.11947256
-0.84372807,7.5999947,5.932531,-0.022228174,-0.08067982,0.28823632,-0.38502076,7.29474,6.0303507,-4.88E-04,-0.067899,-0.017545342
0.17807329,7.3921866,6.8887343,0.01588979,0.040760092,0.37986606,-0.24424726,7.319102,6.2449465,0.0036064922,-0.04073423,0.08180751
0.8828958,7.8010993,6.575586,0.06451462,0.039538354,-0.24248295,0.03753853,7.439601,6.327606,0.018833525,-0.020666085,7.35E-04
-0.32468748,7.2878036,6.402732,0.006115948,-0.046715736,-0.06997475,-0.053017974,7.4016514,6.346388,0.015654132,-0.027178498,-0.016942516
0.25851497,7.472628,7.164534,-0.019784711,0.022922838,-0.0015579015,0.024865262,7.4193954,6.5509243,0.006794421,-0.014653164,-0.013096362
-0.3424038,7.242316,6.1949244,-0.011965643,-0.21604744,-0.18041909,-0.066952005,7.3751254,6.4619246,0.0021044053,-0.06500173,-0.054927044
-0.37592116,7.1642685,6.556433,0.05938335,-0.20700665,0.14920351,-0.14419429,7.322411,6.485552,0.016424142,-0.10050296,-0.0038944036
0.14407706,7.204489,5.4292912,0.009048105,0.06323991,0.38353124,-0.07212645,7.2929306,6.2214866,0.014580132,-0.059567243,0.09296201
0.24798095,6.9253373,6.6488457,0.0041611856,0.13458891,0.21004565,0.007900402,7.201032,6.328326,0.0119753955,-0.011028204,0.12223292
0.8139459,6.9291677,7.2291746,-0.0068343785,0.23721418,0.1992944,0.20941177,7.133066,6.5535383,0.0072729522,0.05103239,0.1414983
0.87571365,7.6469183,5.483877,0.073066734,0.2303725,-0.4079051,0.37598723,7.261529,6.2861233,0.023721397,0.09586742,0.00414744
0.12300899,6.9641213,6.3663416,-0.0017031161,0.09647095,-0.44260222,0.31274268,7.187177,6.306178,0.01736527,0.0960183,-0.107539974
-0.4209303,7.3586693,6.884904,0.06940155,-0.14909667,-0.33704478,0.12932444,7.23005,6.4508595,0.030374339,0.034739558,-0.16491617
-0.750837,7.0756865,7.305307,0.09725698,-0.2732244,0.15262435,-0.09071593,7.191459,6.6644716,0.047095,-0.042251434,-0.08553104
-0.24855514,6.354105,7.8482885,0.042034797,-0.21409266,0.23008199,-0.13017574,6.9821205,6.960426,0.04582995,-0.08521174,-0.006627783
0.55107385,7.358191,6.6488457,-0.047884494,-0.010308204,0.21224473,0.040136665,7.076138,6.8825307,0.02240134,-0.06648585,0.048090346
0.346139,6.744822,7.099893,-0.10383969,0.02414457,0.09495872,0.11663725,6.993309,6.9368715,-0.009158917,-0.04382825,0.059807442
0.05166485,6.829573,7.7118254,-0.03029158,0.15022705,0.1687512,0.10039415,6.952375,7.13061,-0.0144420825,0.004685577,0.08704338
0.9571131,6.5743623,7.7003336,-0.0036578826,0.273133,-0.4350275,0.31457388,6.857872,7.273041,-0.011746032,0.07179743,-0.04347434
-0.37113303,7.1685777,6.8360643,-0.01392041,0.042226166,-0.5650195,0.14314716,6.9355483,7.1637964,-0.0122896265,0.064404614,-0.17386064
-0.7005609,5.9906807,6.8216987,0.029328812,-0.17792948,-0.06875302,-0.06777987,6.6993313,7.078272,-0.0018850174,0.0038210899,-0.14758374
-0.2475975,6.801802,7.0769105,0.012957637,-0.12881596,-0.055069648,-0.11273427,6.724949,7.0779314,0.0018256463,-0.029338174,-0.12445521
-0.44630766,6.5729265,6.6249046,-0.0048796106,-0.16937736,0.016279347,-0.19612762,6.686943,6.964675,1.49E-04,-0.06434797,-0.089271575
-0.23371169,7.1628313,6.9921594,-0.0053683,-0.24659066,0.15628953,-0.20552364,6.805915,6.971546,-0.001230076,-0.10990864,-0.027881298
-0.030692136,6.7271056,6.8489914,0.025663618,-0.23364034,0.3999024,-0.16181576,6.7862124,6.9409075,0.0054933475,-0.14084157,0.07906462
0.57693017,6.3373466,6.701515,0.025419276,0.17637205,0.37668955,0.02287072,6.673996,6.8810596,0.01047483,-0.061538167,0.15347086
0.84650564,7.488429,6.05463,0.041790448,0.292192,0.06856937,0.22877945,6.8776045,6.6744523,0.018303733,0.026894376,0.13224548
-0.079531744,6.5355773,7.838713,0.016378481,0.15218182,-0.047983624,0.15170166,6.7920976,6.9655175,0.01782242,0.058216237,0.08718821
0.29490528,6.4953566,7.3670745,0.048876476,0.16659823,-0.013530848,0.18750256,6.717912,7.0659065,0.025585935,0.08531173,0.06200844
0.42658067,6.4350257,7.026155,-0.01929602,0.17686073,-0.08365813,0.24727209,6.6471906,7.0559688,0.014365446,0.108198985,0.025591798
0.0066558123,6.915282,6.597612,-0.097486705,0.1531592,-0.15354103,0.18711802,6.7142134,6.9413795,-0.013597593,0.119439036,-0.019191407
0.051185966,6.2396674,8.495174,0.01320199,0.15486963,-0.27595833,0.153135,6.595577,7.3298283,-0.006897697,0.12829669,-0.083383135
-0.10155751,6.959813,5.372312,0.08626141,-0.09998314,-0.36929846,0.08946188,6.686636,6.8404493,0.016392078,0.07122673,-0.15486196
-0.47647333,6.8918204,6.8087716,0.10458734,-0.22728734,-0.10345014,-0.05202192,6.737932,6.83253,0.038440894,-0.003401786,-0.142009
-0.14129949,7.2155013,5.7491426,0.041790448,-0.23999333,-0.03063506,-0.07434131,6.8573246,6.561683,0.039278284,-0.06254967,-0.114165515
-0.66081893,6.3344736,6.9648666,-0.013431723,-0.2211787,0.02409842,-0.22096072,6.726612,6.662479,0.02610078,-0.10220693,-0.07959953
-0.53919864,7.2308245,5.706528,0.06304855,-0.26149577,0.107420355,-0.30052018,6.852665,6.4234915,0.035337724,-0.14202914,-0.03284456
-0.52100354,6.0251565,7.1051607,-0.05423748,-0.1769521,0.61712587,-0.355641,6.6457877,6.593909,0.0129439235,-0.15075988,0.12964804
0.97195643,6.8463316,7.5782347,0.11411683,0.42633793,0.32391086,-0.023741663,6.695924,6.83999,0.03823715,-0.0064854324,0.17821375
0.37008,5.7747335,7.843979,0.06402593,0.44612992,-0.24248295,0.07471375,6.4656262,7.090987,0.044684347,0.106668405,0.07303958
0.6367825,7.2796645,5.6605616,-0.07500688,0.17172949,-0.32238403,0.21523094,6.669136,6.733381,0.014761541,0.12293368,-0.025816321
0.37582582,6.8391495,5.3684816,0.039346986,0.080344126,-0.18823816,0.25537968,6.7116394,6.392156,0.020907901,0.11228629,-0.06642178
-0.013454676,6.7232757,7.1185675,0.121202864,0.044425275,-0.30527982,0.18817109,6.7145486,6.573759,0.04598164,0.09532104,-0.12613629
-0.34384027,5.7938857,7.645748,0.028107084,-0.16986606,-0.44968826,0.05516824,6.4843826,6.8417563,0.041513003,0.029024266,-0.20702428
-0.95625067,7.3376007,7.9407015,0.2519279,-0.3355326,-0.2187814,-0.1976865,6.697687,7.1164927,0.09411673,-0.062114954,-0.20996356
-0.69720924,6.33591,5.12955,-0.0671878,-0.3318674,0.2853042,-0.32256716,6.6072426,6.619757,0.0537906,-0.12955306,-0.08614662
-0.67614114,5.39886,7.915802,0.036659185,-0.23926029,0.32244477,-0.41096067,6.305147,6.9437685,0.049507745,-0.15697987,0.016001225
-0.03260743,6.8080263,7.1008515,0.020043671,-0.013729043,0.53917956,-0.31637236,6.430867,6.9830394,0.042141728,-0.12116717,0.14679581
0.78952605,6.9971604,7.108991,-0.0017031133,0.3523011,0.28505987,-0.03989777,6.5724406,7.0145273,0.031180518,-0.002800107,0.18136182
0.8833747,6.570053,6.770944,0.078686684,0.43415695,-0.07046344,0.19092035,6.5718436,6.9536314,0.04305706,0.10643916,0.118405506
0.91258276,6.8674,6.612933,-0.06865389,0.2684905,-0.49367052,0.37133595,6.645733,6.868457,0.015129324,0.14695199,-0.034613505
-0.3050559,6.367991,7.3172774,0.0058716135,0.0818102,-0.5623317,0.202238,6.5762973,6.980662,0.012814896,0.13066654,-0.16654305
-0.49945664,6.3723006,8.0570545,0.066225044,-0.18257204,-0.29355124,0.026814342,6.525298,7.24976,0.026167434,0.0523569,-0.1982951
-1.0366924,5.838896,7.192785,0.03861395,-0.3079215,-0.06459914,-0.23906234,6.353698,7.2355165,0.029279063,-0.0377127,-0.16487111
-0.36730245,7.344784,6.21695,0.10898559,-0.23486206,0.119393304,-0.27112237,6.601469,6.980875,0.049205694,-0.08700004,-0.09380501
-0.26244086,6.386665,6.9648666,-0.06352262,-0.16815564,0.22763854,-0.26895198,6.547768,6.976873,0.021023616,-0.10728894,-0.013444118
-0.07809528,7.0206223,7.4628386,0.031527925,-0.11268912,0.17266071,-0.22123781,6.665982,7.0983644,0.023649693,-0.10863899,0.03308209
-0.1685922,7.191561,5.5130854,-0.039821073,-0.01592816,0.47638267,-0.2080764,6.7973766,6.7020445,0.007782001,-0.08546128,0.14390723
0.88528997,7.312703,6.1336355,-0.04690711,0.28754944,0.11426205,0.06526519,6.9262085,6.5599422,-0.0058902763,0.0077914,0.13649593
0.7330254,6.8348403,8.214107,-0.014409097,0.31662658,-0.059956565,0.23220524,6.9033666,6.973483,-0.008019982,0.085000195,0.08738281
0.4040762,7.2087984,5.8391614,-0.037377622,0.22988379,-0.2977051,0.27517298,6.9797244,6.689903,-0.015359392,0.121221095,-0.0088891685
0.05788951,6.825743,6.3582015,0.0022064196,0.123593345,-0.3424204,0.2208521,6.941229,6.6069775,-0.010967939,0.12181416,-0.092271976
-0.089586966,6.7529616,7.9258575,0.047899093,-0.059421726,-0.39544344,0.14324233,6.894162,6.9366975,0.0037488192,0.07650519,-0.16806483
-0.65507305,6.8501625,6.6373534,-0.024671627,-0.26296186,-0.07681643,-0.056336522,6.8831625,6.861861,-0.0033562924,-0.008361571,-0.14525273
-0.53488934,6.075911,7.728105,-0.0029248488,-0.23608379,0.10302214,-0.17597473,6.6813498,7.078422,-0.0032484315,-0.06529213,-0.08318402
-0.15997347,6.82287,7.35702,-0.02051775,-0.18281639,0.15311305,-0.17197442,6.7167296,7.1480713,-0.007565761,-0.094673194,-0.024109751
0.036821432,6.9693885,6.71971,0.033238344,-0.16962172,0.20295961,-0.11977546,6.7798944,7.040981,0.0026352648,-0.113410324,0.03265759
-0.3395309,6.4479537,6.0943723,0.071356304,-0.050136577,0.44877163,-0.17471431,6.696909,6.804329,0.019815525,-0.09759189,0.1366861
0.9666894,6.7290215,6.6282563,0.030061852,0.24063501,0.1663077,0.11063661,6.704937,6.7603106,0.022377107,-0.013035163,0.1440915
0.59704053,6.5652647,6.4850893,0.029817503,0.26897913,-0.025015105,0.23223759,6.670019,6.6915054,0.024237206,0.057468414,0.10181485
0.20536597,5.8518233,7.7496514,-0.03640023,0.18932238,0.022632344,0.22551969,6.4654703,6.956042,0.009077847,0.09043191,0.082019225
0.48691207,6.2363157,6.7551436,0.055229474,0.23281595,-0.0074222023,0.29086778,6.4081817,6.905817,0.020615753,0.12602791,0.05965887
0.78617436,6.4436445,7.0338163,0.038613956,0.21522304,-0.4123033,0.41469443,6.4170475,6.9378166,0.025115304,0.1483267,-0.05833167
-0.20210962,6.7898316,6.1992335,-0.042508878,-0.08214589,-0.256655,0.2604934,6.5102434,6.753171,0.008209258,0.09070855,-0.1079125
-0.52674943,6.459446,6.4276304,0.11265076,-0.15105143,-0.14718805,0.06368269,6.4975443,6.671786,0.03431963,0.03026855,-0.11773139
0.039215527,6.732852,7.638087,2.52E-04,-0.1578931,-0.17211132,0.057565898,6.556371,6.913361,0.025802637,-0.016771864,-0.13132638
-0.28494543,6.7678056,6.5588274,0.08308491,-0.16229135,-0.029902024,-0.028061934,6.60923,6.8247275,0.040123206,-0.053151734,-0.10597029
-0.24951275,5.757017,7.1741104,-0.03884369,-0.17035475,-0.030879404,-0.083424635,6.396177,6.912073,0.02038148,-0.08245249,-0.08719757
-0.53441054,6.3900166,6.335697,0.05083125,-0.28055474,0.13991837,-0.1961711,6.3946366,6.767979,0.027993923,-0.13197805,-0.030418586
-0.0010052919,6.3263335,6.816911,-0.0053683026,-0.26613837,0.44095254,-0.14737965,6.3775606,6.7802124,0.019653367,-0.16551813,0.08742419
0.550595,6.4326315,7.4570932,0.017844558,0.16977473,0.37106958,0.027114004,6.3913283,6.9494324,0.019201165,-0.081694916,0.15833554
0.6061381,6.420661,7.2804084,0.06793546,0.24869841,0.12818976,0.17187002,6.3986616,7.0321765,0.031384736,9.03E-04,0.1507991
0.8656584,5.982541,8.710643,0.091392666,0.23110552,-0.1166448,0.34531713,6.2946315,7.451793,0.04638672,0.05845394,0.08393812
0.01910511,5.9365745,7.062545,-0.026870746,0.11943947,-0.12299781,0.2637641,6.205117,7.354481,0.028072353,0.07370032,0.032204136
0.29825705,5.796759,8.091529,0.0046498766,0.09036232,-0.1352151,0.27238736,6.103028,7.538743,0.022216734,0.077865824,-0.009650674
-0.22222003,4.7955465,8.330938,-0.052282717,-0.0432949,-0.060689606,0.14873551,5.7761574,7.7367916,0.003591871,0.047575645,-0.022410408
-0.05606959,5.0215497,8.315138,-0.0095221875,-0.04060709,0.029718375,0.09753423,5.5875053,7.881378,3.13E-04,0.025529962,-0.009378212
0.41508907,5.0047913,8.408987,-0.0012144232,0.058352992,-0.021838611,0.17692295,5.441827,8.013281,-6.86E-05,0.03373572,-0.012493311
0.20153542,4.643761,8.471712,0.011980255,-0.065530375,-0.13497075,0.18307607,5.2423105,8.127889,0.0029436222,0.008919194,-0.043112673
-0.23562698,5.0143676,9.542831,-0.0031691943,-0.10071619,-0.12324217,0.07840031,5.1853247,8.481625,0.001415418,-0.018489651,-0.06314505
-0.3069483,6.6331887,7.134437,-0.004646903,-0.007655305,0.0030264948,-0.076737076,1.6582972,1.7836093,-0.0011617257,-0.0019138262,7.57E-04
-0.15087588,6.593742,7.0954475,-0.004065127,0.0018858202,-0.012506924,-0.09527178,2.8921585,3.111569,-0.0018875761,-9.64E-04,-0.0025592633
-0.30888638,6.5862193,7.259272,0.0043124463,-6.74E-04,-0.04497002,-0.14867543,3.8156738,4.1484947,-3.38E-04,-8.91E-04,-0.013161953
-0.2222428,6.871002,7.1082163,0.0037888475,0.008750776,-0.07336068,-0.16706727,4.579506,4.888425,6.94E-04,0.0015191182,-0.028211635
-0.5514884,7.201617,6.7769175,0.021125771,0.031381864,-0.09413009,-0.26317257,5.2350335,5.360548,0.0058019683,0.008984805,-0.04469125
-0.8215656,7.06538,6.492591,0.037240963,-0.058560695,-0.0075618294,-0.40277082,5.6926203,5.6435585,0.013661717,-0.007901571,-0.035408895
-0.5078246,7.8122253,6.5421824,0.040847983,-0.031449936,0.031184452,-0.42903426,6.222522,5.8682146,0.020458285,-0.013788662,-0.018760558
-0.29486385,7.635062,6.2251353,0.023394693,0.10480199,0.32364324,-0.39549166,6.575657,5.9574447,0.021192387,0.015859,0.066840395
0.20835292,7.699247,6.276893,-0.035131954,0.06983725,0.11013143,-0.24453051,6.8565545,6.037307,0.0071113016,0.029353563,0.07766315
0.08169369,7.44171,5.879017,-0.0065667625,0.06547393,0.048870437,-0.16297446,7.0028434,5.997734,0.0036917855,0.038383655,0.070464976
0.4648635,7.811541,6.5546083,2.40E-04,0.071524404,-0.18709788,-0.006014973,7.205018,6.1369524,0.002828844,0.046668842,0.0060742646
0.1567088,7.698905,6.2629843,-0.027452525,0.013986761,-0.52615684,0.034665972,7.32849,6.1684604,-0.0047414983,0.03849832,-0.12698351
-0.13548522,7.7227316,6.4211097,0.042360585,-0.1615932,-0.8573619,-0.007871825,7.42705,6.2316227,0.0070340224,-0.011524558,-0.30957812
-2.2762654,7.2359324,6.534088,0.28309947,-0.5790174,-0.3009514,-0.5749702,7.3792706,6.307239,0.076050386,-0.15339777,-0.30742145
-2.776746,7.281192,6.271422,0.19152792,-0.62916654,0.5060882,-1.1254141,7.3547506,6.2982845,0.10491977,-0.27233997,-0.104044035
0.04418615,7.5763497,7.201928,-0.043393172,0.2810219,1.7282828,-0.8330141,7.4101505,6.5241957,0.06784153,-0.1339995,0.3540377
1.7841259,6.4721003,7.9561834,0.38624832,0.66045624,0.78516614,-0.17872906,7.175638,6.8821926,0.14744323,0.064614445,0.46181983
1.7482147,6.8988204,5.5895596,0.13643375,0.564405,-0.61191064,0.3030069,7.106434,6.5590343,0.14469087,0.18956208,0.19338721
0.6090795,6.9323373,5.7215767,-0.061195526,0.2778803,-0.71203434,0.37952504,7.0629096,6.34967,0.09321927,0.21164164,-0.03296818
-0.7763057,7.1880493,6.90449,0.09826926,-0.28172994,-0.8904067,0.09056735,7.0941944,6.4883747,0.094481766,0.088298745,-0.24732782
-1.9190888,6.414071,7.913545,0.29002255,-0.52147985,-0.17429882,-0.4118467,6.924164,6.8446674,0.14336696,-0.0641459,-0.22907057
-1.46364,6.507327,5.942404,0.029445168,-0.34304914,0.9479469,-0.67479503,6.819955,6.6191015,0.114886515,-0.1338717,0.06518379
-0.15429604,6.6970315,6.815566,-0.021402046,0.03894495,0.8524193,-0.5446703,6.789224,6.6682177,0.08081438,-0.090667546,0.26199266
1.3534162,7.2059493,7.3019094,0.11397721,0.29161024,0.61272764,-0.07014865,6.8934054,6.8266406,0.089105085,0.004901901,0.3496764
1.1062539,7.284269,7.6053896,0.10769404,0.5212954,-0.20548199,0.223952,6.9911213,7.021328,0.093752325,0.13400029,0.2108868
0.49131262,5.8531685,7.1632814,-0.014944343,0.46689922,-0.61417955,0.29079217,6.706633,7.056816,0.06657816,0.21722502,0.0046202242
-0.5717812,6.065217,8.169828,0.14574218,-0.31913814,-0.7948792,0.07514882,6.546279,7.335069,0.086369164,0.083134234,-0.19525462
-1.6153806,5.645223,5.1326284,0.20816672,-0.59664524,-8.71E-04,-0.34748355,6.321015,6.784459,0.116818555,-0.08681063,-0.14665881
-1.0313342,6.0678396,7.739802,0.057544943,-0.17497405,1.052725,-0.5184462,6.257721,7.023295,0.102000155,-0.10885149,0.15318713
1.9342703,7.1795,6.802569,0.07214752,0.59983504,-0.1169357,0.09473288,6.488166,6.9681134,0.094537,0.06832014,0.08565642
1.542322,6.4945593,6.2746134,0.109962955,0.4405449,-0.7359453,0.45663017,6.489764,6.7947383,0.098393485,0.16137633,-0.119744
-0.30273032,5.910741,8.5576725,0.1336994,-0.15554275,-0.56659025,0.26679003,6.3450084,7.2354717,0.107219964,0.082146555,-0.23145556
-1.3561337,7.404203,6.6453576,0.12398375,-0.2687563,-0.27413148,-0.1389409,6.609807,7.087943,0.11141091,-0.0055791587,-0.24212454
-1.049917,6.5948834,6.4485846,0.01356268,-0.42839563,0.033744268,-0.3666849,6.6060762,6.9281034,0.08694885,-0.11128327,-0.17315733
-1.3539675,7.1036863,5.729899,0.17890339,-0.35381198,0.51813084,-0.6135056,6.730479,6.6285524,0.10993748,-0.17191544,-3.35E-04
0.6142097,7.1161127,7.676758,-0.16143553,-0.19172922,0.7493286,-0.3065768,6.826887,6.890604,0.04209423,-0.17686889,0.18708068
0.94847137,7.0900064,7.0786886,0.07220569,0.49482453,0.31369486,0.0071852505,6.892667,6.937625,0.049622096,-0.008945525,0.21873423
0.9958974,6.41088,5.409659,0.08413211,0.5820328,-0.37815306,0.2543633,6.77222,6.5556335,0.0582496,0.13879906,0.06951241
-0.31572676,6.6100464,6.8502235,-0.009708357,-0.01062236,-0.75694734,0.111840785,6.7316766,6.629281,0.04126011,0.1014437,-0.13710253
-1.6480997,6.863707,6.145218,0.1728529,-0.3093643,-0.31462318,-0.3281443,6.764684,6.5082655,0.07415831,-0.0012582988,-0.18148269
-1.411084,5.4297547,7.4454417,-0.03437565,-0.38796225,0.66782176,-0.5988792,6.430952,6.7425594,0.04702482,-0.09793429,0.030843422
1.0403593,7.236501,7.997567,0.0065813838,-0.109117016,0.80279386,-0.1890696,6.6323395,7.0563116,0.03691396,-0.10072997,0.22383103
1.8196955,7.147464,4.765534,0.1652898,0.53822505,-0.27750582,0.31312165,6.761121,6.4836173,0.06900792,0.059008777,0.098496825
0.012834753,7.348569,4.0148125,0.16011202,0.36642665,-0.75921637,0.23804992,6.907983,5.866416,0.09178394,0.13586324,-0.11593148
-0.96042335,6.386027,8.310053,0.015249827,-0.29836872,-0.20222406,-0.06156838,6.777494,6.4773254,0.07265041,0.027305253,-0.13750462
-0.8302299,5.9059534,6.9954653,-0.020005777,-0.30063766,0.24254362,-0.25373375,6.559609,6.60686,0.04948636,-0.054680474,-0.04249256
0.31449127,6.044697,8.350526,-0.04164786,0.016313866,0.1608623,-0.1116775,6.430881,7.0427766,0.026702806,-0.036931887,0.008346155
0.12980367,5.538288,7.2411456,0.101876274,0.09153749,0.028682807,-0.051307205,6.2077327,7.092369,0.045496173,-0.004814543,0.013430318
0.039967973,4.626706,8.431241,0.02304563,0.02527321,-0.08313452,-0.02848841,5.812476,7.427087,0.03988354,0.0027073952,-0.010710891
0.28359604,5.8717513,7.643012,-0.004123313,-0.007655303,-0.06381956,0.049532697,5.827295,7.481068,0.028881826,1.17E-04,-0.023988057
-0.5339317,4.782664,8.907096,-0.004646901,-0.041747376,-0.0032566846,-0.0963334,5.5661373,7.837575,0.020499643,-0.0103493035,-0.018805213
-0.054655943,5.5608606,8.3373,-0.01721326,-0.02033802,0.07609754,-0.08591404,5.5648184,7.9625063,0.0110714175,-0.012846483,0.004920475
-0.1821132,5.140981,8.639071,0.01961315,0.06442673,0.18360974,-0.10996383,5.458859,8.131647,0.013206851,0.00647182,0.049592793
0.16218102,5.220214,8.587085,0.03153956,0.050405934,0.04980129,-0.041927613,5.3991976,8.245506,0.017790027,0.017455349,0.049644917
0.1763176,5.7167044,8.091278,-0.008370265,0.07600408,0.03566412,0.012633689,5.4785743,8.206949,0.011249954,0.032092534,0.046149716
0.055244606,5.3989735,8.387463,0.015715256,-0.0050373124,-0.13206188,0.023286417,5.458674,8.252077,0.01236628,0.022810072,0.0015968159
-0.12020861,5.1408668,8.269468,1.82E-04,0.012823209,0.04520525,-0.012587339,5.379222,8.256425,0.00932017,0.020313356,0.0124989245
0.013404882,5.5969996,8.327837,-0.009941064,-0.012833111,0.014429303,-0.0060892836,5.433666,8.274278,0.0045048613,0.012026739,0.012981519
0.10016245,6.0694356,7.890972,0.015540724,0.016546575,-0.010994306,0.02047365,5.5926085,8.178452,0.007263827,0.013156698,0.006987563
-0.13799337,6.7346535,7.146636,-0.0020289118,0.017361064,-0.011808792,-0.03449834,1.6836634,1.786659,-5.07E-04,0.004340266,-0.002952198
-0.15942624,6.695321,7.2508364,-0.0018543773,-0.0040482916,-0.0043620593,-0.06573032,2.9365778,3.1527033,-8.44E-04,0.0022431265,-0.0033046633
-0.20525612,6.687454,7.101375,-0.0020870897,-6.74E-04,-0.023793375,-0.10061177,3.874297,4.139871,-0.0011547839,0.0015138467,-0.008426841
-0.14745575,6.7744403,7.109013,-0.001738023,-0.050183125,-0.19914064,-0.11232276,4.599333,4.8821564,-0.0013005936,-0.011410397,-0.05610529
-0.3820774,6.55407,7.191552,-0.0016798456,-0.027668396,-0.15515839,-0.17976142,5.088017,5.459505,-0.0013954067,-0.015474897,-0.080868565
-0.6401841,7.0764394,6.476287,0.044047743,-0.050066777,-0.2855925,-0.2948671,5.5851226,5.7137003,0.009965381,-0.024122868,-0.13204955
-1.0714638,6.9936714,6.6996236,0.0011708606,-0.1450126,-0.5547803,-0.4890163,5.9372597,5.960181,0.0077667506,-0.054345302,-0.23773223
-2.1518865,7.0348277,6.1107883,0.07098397,-0.18015186,-0.39240655,-0.90473384,6.211652,5.9978333,0.023571055,-0.085796945,-0.2764008
-2.1318219,7.018183,6.978478,0.08803001,-0.3290865,-0.5441919,-1.2115059,6.413285,6.2429943,0.039685793,-0.14661933,-0.34334856
-2.6126933,6.7859554,6.4092517,0.1511527,-0.23704958,-0.041770265,-1.5618027,6.5064526,6.284559,0.06755252,-0.1692269,-0.267954
-1.0940369,7.383226,6.0300736,0.02275474,0.10392931,0.9378822,-1.4448613,6.725646,6.2209377,0.056353077,-0.10093784,0.033505052
-0.055681977,7.5255027,6.591661,-0.06561701,0.13301814,0.69894683,-1.0975665,6.92561,6.3136187,0.025860555,-0.04244885,0.19986549
1.3088404,7.692178,6.49316,0.05387975,0.32407334,0.42597765,-0.49596477,7.117252,6.358504,0.032865353,0.0491817,0.25639352
1.6331838,7.4360104,6.400474,0.084306635,0.3526385,0.03240619,0.036322355,7.1969414,6.3689966,0.045725673,0.1250459,0.20039669
1.0752445,7.705175,6.130625,0.016180683,0.08089099,-1.0961809,0.2960529,7.324,6.3094034,0.038339425,0.11400717,-0.12374771
-2.037996,7.1323004,7.2173185,0.23225224,-0.39686343,-0.6933592,-0.28745934,7.276075,6.536382,0.08681763,-0.013710476,-0.2661506
-2.0662687,7.0827084,7.033314,0.31160647,-0.5437618,-0.269361,-0.73216164,7.227733,6.660615,0.14301485,-0.1462233,-0.2669532
-1.5327266,6.8461494,6.547654,0.10519239,-0.43124634,1.0317808,-0.9323029,7.132337,6.632375,0.13355923,-0.21747907,0.057730317
-0.25188404,6.0537033,6.8837404,-0.11192641,-0.06181864,1.2491904,-0.7621982,6.8626785,6.695216,0.07218782,-0.17856395,0.35559535
2.5389507,6.199401,8.095839,0.31480628,0.7680847,0.43103904,0.06308901,6.6968594,7.045372,0.13284244,0.058098212,0.3744563
1.8150213,5.9515543,6.97882,0.23393945,0.7171212,-0.33126193,0.50107205,6.5105333,7.028734,0.1581167,0.22285396,0.19802673
0.60246706,6.9096503,6.855012,0.05702134,0.12882932,-1.2729827,0.52642083,6.6103125,6.985304,0.13284285,0.1993478,-0.16972564
-0.99941283,5.8275175,8.048412,0.11886413,-0.4094298,-1.3278439,0.14496243,6.4146137,7.251081,0.12934817,0.0471534,-0.45925522
-2.5014248,7.122839,6.0520754,0.36664248,-0.61107326,0.622676,-0.51663435,6.59167,6.9513297,0.18867175,-0.11740327,-0.18877241
-1.316688,6.189141,5.9463935,-0.06392987,-0.31285495,1.2092226,-0.71664774,6.491038,6.7000957,0.12552135,-0.16626619,0.16072634
1.9818099,6.343731,7.884815,0.2432478,0.47242618,0.6268067,-0.042033315,6.454211,6.9962754,0.15495296,-0.0065930933,0.27724642
1.6342098,6.9811306,6.511515,0.2113083,0.5880832,0.14922678,0.37702745,6.5859413,6.8750854,0.1690418,0.14207599,0.24524151
1.0987296,6.097253,7.009373,0.055625077,0.39033762,-0.78842145,0.557453,6.463769,6.908657,0.14068761,0.2041414,-0.013174221
0.31893754,6.632162,7.435752,-0.028267004,0.0691973,-0.9981516,0.49782413,6.505867,7.040431,0.09844896,0.17040537,-0.25941855
-1.7190105,7.11007,7.003787,0.2225366,-0.3805155,-0.367972,-0.056384504,6.6569176,7.03127,0.12947087,0.032675162,-0.2865569
-1.4533794,7.0604787,6.7077165,0.20281439,-0.45329568,0.044332586,-0.4056332,6.7578077,6.9503818,0.14780675,-0.08881755,-0.20383453
-1.1175216,6.813772,7.407592,0.007628561,-0.36248043,0.60563,-0.5836053,6.771799,7.0646844,0.1127622,-0.15723327,-0.0014684051
-0.41012254,7.0991254,6.5606513,0.035961058,-0.16124415,0.8809264,-0.5402346,6.8536305,6.938676,0.09356192,-0.158236,0.21913029
1.9050848,6.9868307,7.1708045,0.16680247,0.58593065,0.19687425,0.07109523,6.8869305,6.996708,0.111872055,0.027805656,0.21356627
1.4783653,6.1830983,6.820582,0.03549563,0.5801711,-0.31485587,0.42291275,6.7109723,6.9526763,0.09277795,0.16589701,0.081460744
0.23092574,5.701086,8.372756,-0.01197728,0.098460644,-0.9692956,0.374916,6.458501,7.3076963,0.06658915,0.14903793,-0.18122834
-1.0422786,6.290035,7.7351284,0.16546437,-0.1912056,-0.65379846,0.020617336,6.416384,7.4145546,0.09130795,0.06397705,-0.29937088
-1.1138735,6.1387506,7.8217716,0.18239406,-0.5125785,-0.08866139,-0.26300538,6.346976,7.516359,0.114079475,-0.08016184,-0.2466935
-1.8929819,5.49109,7.4409957,0.09826926,-0.5477761,0.37530494,-0.6704995,6.133004,7.497518,0.11012692,-0.19706541,-0.0911939
0.74200904,5.4808297,6.28761,0.07761621,0.2917266,1.1463907,-0.31737238,5.9699607,7.195041,0.10199924,-0.07486741,0.21820225
2.267962,8.013444,7.328587,0.22532912,0.59006125,0.27913737,0.3289612,6.4808316,7.228428,0.13283171,0.091364756,0.23343603
0.815314,5.9939637,6.7969832,-0.051538054,0.3328,-0.9509116,0.4505494,6.3591146,7.120567,0.08673927,0.15172356,-0.062650874
-0.322909,6.5747046,7.478503,0.05847579,0.026960365,-0.9570201,0.2571848,6.413012,7.210051,0.0796734,0.120532766,-0.2862432
-1.5686386,5.634964,6.5397882,0.13224496,-0.5434709,-0.2381778,-0.19927102,6.2185,7.042485,0.09281629,-0.04546815,-0.27422684
-1.6932453,6.399138,7.325281,0.24022257,-0.58710414,0.16278216,-0.5727646,6.2636595,7.113184,0.12966786,-0.18087715,-0.1649746
6.63E-05,5.8822403,7.1446977,-0.03542286,7.22E-04,1.2754285,-0.42955685,6.1683044,7.1210623,0.08839518,-0.13547729,0.19512618
1.810575,7.2004757,5.153035,0.2614574,0.47254252,0.6077826,0.13047612,6.4263473,6.6290555,0.13166073,0.016527668,0.29829028
2.0577374,6.3636823,6.399449,0.09041528,0.59361017,-0.6285494,0.61229146,6.410681,6.571654,0.121349365,0.1607983,0.066580355
0.5633636,6.5723104,7.095219,-0.030419577,0.23861046,-1.1603508,0.6000595,6.451088,6.702545,0.083407134,0.18025133,-0.24015242
